AccX,AccY,AccZ,GyrX,GyrY,GyrZ,Time
-3.94,2.88,17.82,-0.04,0.22,-0.23,1721201018685
-4.8,-0.82,10.63,0.07,-0.14,-0.07,1721201018690
-2.94,3.49,6.5,0.06,0.29,0.21,1721201018700
1.58,-3.84,10.6,-0.17,0.11,-0.0,1721201018710
-1.42,-3.36,9.21,-0.02,-0.2,-0.17,1721201018720
-0.94,4.02,8.22,0.02,0.31,-0.24,1721201018730
1.72,-0.36,18.46,-0.16,0.29,-0.12,1721201018740
-1.8,0.82,8.06,0.17,-0.25,-0.04,1721201018750
-0.2,-2.64,10.01,-0.28,0.45,-0.1,1721201018760
-0.34,2.36,14.94,0.08,-0.34,0.13,1721201018770
-0.58,5.73,4.06,0.13,0.23,-0.16,1721201018780
3.57,-1.21,15.36,-0.09,0.15,-0.21,1721201018790
-2.8,0.4,4.53,0.12,-0.45,-0.1,1721201018800
-1.93,0.32,12.59,-0.1,0.62,-0.2,1721201018810
0.38,-3.86,15.57,0.09,0.04,0.0,1721201018820
-2.33,7.47,9.67,0.27,0.09,0.05,1721201018830
2.27,-2.46,9.2,-0.11,0.19,-0.19,1721201018840
-3.6,8.04,9.14,0.28,-0.59,-0.15,1721201018850
0.3,1.43,8.56,-0.03,0.6,-0.2,1721201018860
-0.67,-2.63,11.72,0.14,-0.37,0.11,1721201018870
-2.53,0.69,10.79,0.02,0.21,0.03,1721201018880
0.79,-0.31,8.62,0.23,-0.12,-0.02,1721201018890
-1.89,1.48,6.67,0.05,-0.0,-0.06,1721201018900
0.41,4.05,16.68,0.22,0.19,-0.12,1721201018910
0.88,-1.82,11.0,0.17,-0.03,0.01,1721201018920
-0.88,2.48,11.35,0.12,-0.07,0.04,1721201018930
0.67,2.77,8.14,0.13,0.05,-0.02,1721201018940
0.65,-3.44,7.86,-0.05,-0.03,-0.05,1721201018950
-0.75,2.68,16.89,0.16,0.03,-0.22,1721201018960
-1.6,2.16,3.78,0.22,-0.1,-0.13,1721201018970
-3.86,0.0,11.72,-0.16,0.02,-0.0,1721201018980
-2.84,-0.45,11.74,0.19,-0.25,0.31,1721201018990
-0.42,0.43,5.67,-0.15,0.09,0.19,1721201019000
1.37,0.48,11.05,0.09,-0.18,0.0,1721201019010
-1.29,1.02,8.83,-0.06,0.07,-0.03,1721201019020
-2.68,0.55,11.79,-0.14,-0.09,0.05,1721201019030
-0.21,0.52,13.92,-0.01,-0.06,0.24,1721201019040
4.01,2.13,10.81,0.02,-0.08,0.15,1721201019050
2.13,0.47,7.11,-0.08,-0.14,-0.05,1721201019060
-2.43,2.35,7.86,-0.11,-0.09,-0.29,1721201019070
-1.15,-10.58,6.82,-0.27,-0.07,-0.19,1721201019080
-3.57,-3.27,13.59,-0.21,-0.24,-0.01,1721201019090
-1.94,4.51,15.17,-0.04,0.04,0.14,1721201019100
0.45,2.96,5.72,-0.02,-0.12,0.02,1721201019110
2.87,-6.45,13.24,-0.44,0.21,-0.24,1721201019120
-0.99,-4.1,4.96,0.02,-0.33,-0.13,1721201019130
-2.62,0.9,8.63,-0.27,0.15,-0.14,1721201019140
2.58,3.33,20.97,0.07,-0.02,-0.03,1721201019150
3.14,6.11,4.01,0.21,-0.18,0.07,1721201019160
5.46,-5.01,7.58,-0.44,0.3,-0.24,1721201019170
-1.52,1.58,19.25,-0.02,-0.1,-0.64,1721201019180
-5.35,0.05,3.95,-0.01,-0.06,-0.35,1721201019190
-3.18,-5.38,8.45,-0.11,0.01,0.27,1721201019200
3.92,7.58,16.77,0.19,0.23,0.28,1721201019210
7.95,-0.97,8.57,-0.01,0.07,-0.26,1721201019220
-1.46,1.32,12.27,-0.13,-0.08,-0.65,1721201019230
-5.22,1.74,16.41,-0.1,0.19,-0.45,1721201019240
-3.56,1.14,8.97,0.15,-0.08,0.21,1721201019250
0.73,-0.68,1.72,0.11,0.19,0.19,1721201019260
4.92,-9.5,9.67,-0.19,0.25,-0.21,1721201019270
0.8,-0.11,16.5,0.15,-0.09,-0.4,1721201019280
-0.51,-3.96,3.85,0.15,0.18,-0.16,1721201019290
-2.15,10.44,15.16,0.45,0.15,0.14,1721201019300
2.65,18.56,10.99,0.53,0.26,0.13,1721201019310
4.84,-0.36,8.77,-0.02,0.14,-0.27,1721201019320
1.48,-16.36,13.01,-0.22,0.15,-0.71,1721201019330
-6.39,-1.69,8.29,0.18,-0.1,-0.42,1721201019340
-5.24,10.87,9.69,0.31,0.34,0.25,1721201019350
5.31,0.56,7.34,0.33,0.45,0.18,1721201019360
4.73,-4.25,9.75,0.09,0.05,-0.44,1721201019370
-3.46,5.09,14.53,0.07,0.13,-0.71,1721201019380
-6.41,4.41,11.47,0.16,0.19,-0.29,1721201019390
-2.73,-3.01,9.83,0.15,0.24,0.38,1721201019400
2.15,-4.56,1.47,0.13,0.16,0.32,1721201019410
2.93,3.37,15.94,-0.07,0.36,-0.41,1721201019420
-0.65,4.46,23.04,0.06,0.12,-0.61,1721201019430
-5.82,4.95,12.56,0.18,0.04,-0.13,1721201019440
-3.15,7.29,2.49,0.46,0.28,0.41,1721201019450
5.03,-0.83,-9.67,0.15,0.28,0.3,1721201019460
6.2,-0.97,-2.42,-0.24,0.04,-0.29,1721201019470
-0.77,-3.09,17.3,-0.54,0.23,-0.84,1721201019480
-11.16,-5.0,34.0,0.25,-0.41,-0.37,1721201019490
-6.59,0.57,2.76,0.09,0.25,0.45,1721201019500
2.29,3.57,10.69,-0.3,0.54,0.36,1721201019510
6.18,6.4,18.56,0.13,0.16,-0.12,1721201019520
3.17,-0.92,3.01,0.01,0.04,-0.39,1721201019530
-3.64,-0.2,9.86,-0.05,0.1,-0.44,1721201019540
-2.97,-9.82,10.58,-0.2,0.29,0.0,1721201019550
-1.98,6.75,10.54,0.13,0.14,0.25,1721201019560
4.16,5.43,10.11,-0.09,0.53,0.03,1721201019570
1.7,-5.23,7.88,-0.06,-0.11,-0.23,1721201019580
-4.39,-4.37,6.88,-0.21,0.21,-0.27,1721201019590
-3.49,0.71,14.51,-0.19,0.27,-0.03,1721201019600
-1.11,0.56,14.3,-0.14,0.04,0.27,1721201019610
0.56,4.58,10.6,0.04,0.25,0.11,1721201019620
1.6,-4.89,3.04,-0.1,0.05,-0.01,1721201019630
-3.81,3.76,11.85,-0.03,0.19,-0.1,1721201019640
-0.5,-0.43,11.6,-0.03,0.27,-0.08,1721201019650
-1.31,-3.31,12.78,-0.18,-0.05,0.17,1721201019660
-1.45,6.74,11.3,0.13,0.11,0.25,1721201019670
3.55,3.56,11.33,0.01,0.27,0.06,1721201019680
0.02,-3.37,8.85,-0.13,-0.28,-0.03,1721201019690
-5.1,-1.52,5.98,0.06,0.11,-0.2,1721201019700
-1.79,1.04,16.79,-0.01,0.36,0.08,1721201019710
-2.65,0.79,12.3,0.12,-0.18,0.35,1721201019720
-2.05,1.6,3.37,0.13,-0.1,0.34,1721201019730
3.75,-3.96,9.91,-0.04,0.38,0.17,1721201019740
3.9,2.11,22.45,0.02,0.04,-0.14,1721201019750
-3.26,5.58,2.85,0.21,-0.33,-0.12,1721201019760
-1.98,-2.09,9.62,-0.09,0.43,-0.02,1721201019770
1.18,5.74,16.01,0.41,-0.04,0.24,1721201019780
1.81,-2.13,4.94,-0.22,-0.06,0.27,1721201019790
-2.34,4.61,15.44,0.13,-0.3,0.01,1721201019800
1.2,-0.34,6.77,0.12,0.24,-0.14,1721201019810
-1.15,0.7,11.99,0.02,-0.11,-0.04,1721201019820
-3.79,1.67,4.96,0.15,-0.21,0.2,1721201019830
-0.8,2.21,15.91,-0.03,0.17,0.33,1721201019840
3.63,-2.15,13.17,0.18,-0.14,0.28,1721201019850
-0.18,-4.0,2.46,-0.08,-0.25,0.03,1721201019860
-0.98,2.73,14.14,0.08,0.11,0.0,1721201019870
0.32,2.59,11.38,0.1,0.14,-0.03,1721201019880
-1.81,7.07,10.2,0.26,-0.2,0.02,1721201019890
1.0,-4.13,2.6,-0.09,0.1,0.13,1721201019900
1.14,-3.12,17.96,-0.09,-0.07,0.18,1721201019910
-1.74,7.02,12.22,0.17,-0.14,0.06,1721201019920
-1.67,1.23,-1.19,-0.09,-0.37,0.17,1721201019930
-2.5,3.79,12.06,0.0,-0.13,0.18,1721201019940
2.23,-3.9,7.93,-0.12,0.07,0.11,1721201019950
-3.43,-3.14,12.68,-0.35,-0.37,-0.1,1721201019960
-5.42,5.62,15.84,0.02,-0.15,0.12,1721201019970
1.37,1.75,3.06,0.02,-0.02,0.48,1721201019980
3.14,0.26,11.32,-0.08,-0.19,0.36,1721201019990
5.1,1.6,9.36,0.11,-0.19,0.03,1721201020000
1.35,3.11,5.29,-0.09,-0.16,-0.3,1721201020010
-5.01,-0.08,13.01,-0.28,-0.29,-0.25,1721201020020
-4.19,-5.86,15.59,-0.08,-0.26,0.25,1721201020030
0.63,3.56,7.21,0.09,0.06,0.48,1721201020040
4.63,0.58,6.09,-0.15,-0.01,0.09,1721201020050
1.65,-4.36,17.18,-0.32,-0.27,-0.31,1721201020060
-2.66,5.66,10.55,0.23,-0.28,-0.08,1721201020070
-1.54,-1.9,3.67,-0.16,0.06,0.15,1721201020080
0.09,-2.04,17.31,-0.02,-0.23,0.38,1721201020090
4.04,-3.72,9.66,-0.11,-0.13,0.04,1721201020100
2.32,2.75,15.37,-0.1,-0.1,-0.37,1721201020110
-0.97,-0.41,2.21,-0.01,-0.25,-0.27,1721201020120
-3.36,2.76,14.79,-0.03,0.08,-0.16,1721201020130
2.43,-4.46,8.72,-0.08,0.0,-0.01,1721201020140
-1.47,1.92,10.82,0.15,-0.25,-0.0,1721201020150
2.51,-5.93,5.91,-0.23,0.29,-0.12,1721201020160
-2.75,4.29,15.5,-0.12,-0.43,-0.08,1721201020170
-1.55,8.71,7.73,0.04,-0.03,-0.07,1721201020180
3.47,-4.91,11.8,-0.17,0.2,-0.26,1721201020190
-2.21,-0.57,10.92,0.08,-0.34,-0.15,1721201020200
-2.06,-0.24,13.13,-0.24,0.13,0.01,1721201020210
1.55,4.27,10.9,0.15,-0.1,0.16,1721201020220
3.22,3.1,9.22,0.05,0.09,-0.09,1721201020230
2.26,2.51,6.63,0.16,-0.16,-0.4,1721201020240
-2.1,0.77,10.44,-0.02,0.01,-0.51,1721201020250
-3.9,1.18,16.76,0.08,-0.03,-0.13,1721201020260
-2.7,-3.69,4.32,0.11,-0.18,0.33,1721201020270
1.29,0.24,11.14,0.01,0.23,0.1,1721201020280
4.24,2.01,10.77,0.16,-0.07,-0.14,1721201020290
0.22,5.14,8.98,0.2,-0.11,-0.27,1721201020300
-0.73,-1.14,15.22,-0.01,0.18,-0.37,1721201020310
-2.62,-2.1,12.13,0.23,-0.15,-0.14,1721201020320
-1.98,1.45,4.54,0.03,0.0,0.11,1721201020330
2.57,-0.18,10.31,0.06,0.1,0.03,1721201020340
2.96,3.6,11.31,0.23,-0.03,-0.27,1721201020350
0.51,-6.04,4.3,-0.07,0.01,-0.37,1721201020360
-5.01,4.56,14.67,0.28,-0.04,-0.33,1721201020370
-1.71,-2.06,10.18,-0.1,0.25,-0.08,1721201020380
-1.56,2.25,15.19,0.11,-0.16,0.31,1721201020390
4.53,3.58,14.28,0.09,0.32,0.02,1721201020400
6.56,1.12,1.89,0.19,-0.12,-0.31,1721201020410
-0.26,-2.59,11.88,-0.23,0.15,-0.64,1721201020420
-3.83,-1.72,8.94,0.0,-0.05,-0.43,1721201020430
-4.72,3.99,10.94,0.0,0.08,-0.08,1721201020440
3.17,-2.02,10.39,-0.04,0.25,0.19,1721201020450
2.86,1.02,7.92,0.07,-0.04,-0.18,1721201020460
1.26,0.83,11.98,-0.24,0.31,-0.59,1721201020470
-1.96,-2.2,11.02,-0.03,-0.12,-0.48,1721201020480
-3.63,3.3,12.27,-0.01,0.35,-0.26,1721201020490
-1.99,-0.68,12.0,-0.01,0.2,-0.11,1721201020500
-4.08,0.8,2.18,-0.02,-0.19,0.0,1721201020510
1.99,-0.05,15.42,-0.2,0.62,-0.18,1721201020520
4.84,0.87,12.56,0.19,-0.0,-0.18,1721201020530
-1.31,4.58,4.42,-0.02,0.06,-0.35,1721201020540
-2.13,-4.5,9.28,-0.13,0.12,-0.44,1721201020550
-2.31,1.2,15.41,-0.0,0.11,-0.13,1721201020560
-0.45,3.64,12.99,0.0,0.22,0.04,1721201020570
-0.54,-3.06,4.06,-0.05,-0.07,-0.12,1721201020580
-2.35,0.59,14.94,0.03,0.26,-0.28,1721201020590
-0.48,-0.53,8.33,0.09,0.11,-0.18,1721201020600
-2.68,3.61,15.0,0.01,0.05,-0.06,1721201020610
0.34,-0.21,8.04,0.05,0.04,0.04,1721201020620
-0.77,-2.67,8.79,-0.07,0.09,-0.27,1721201020630
0.19,1.19,15.85,0.07,0.11,-0.36,1721201020640
-2.41,0.52,1.69,0.11,-0.19,-0.09,1721201020650
-3.96,1.16,12.74,0.01,0.36,-0.01,1721201020660
0.1,-1.12,12.04,0.03,0.11,-0.05,1721201020670
-0.32,1.51,15.0,-0.07,0.03,-0.11,1721201020680
-0.62,0.16,3.61,-0.01,0.04,-0.06,1721201020695
-0.83,-3.89,4.71,-0.11,0.12,-0.12,1721201020699
-1.08,4.32,12.93,0.18,0.06,-0.1,1721201020709
-0.05,0.35,5.78,0.08,0.01,0.05,1721201020719
-1.28,-0.58,10.85,-0.12,0.08,-0.17,1721201020729
0.42,-1.05,15.6,0.0,0.16,-0.2,1721201020739
-0.79,1.61,13.26,-0.02,0.08,-0.07,1721201020749
-1.71,3.38,7.61,0.16,-0.18,0.1,1721201020759
0.41,-1.9,9.05,-0.02,0.27,-0.01,1721201020769
0.26,-1.16,10.08,0.05,-0.2,0.01,1721201020779
-1.3,-1.67,7.67,-0.05,0.14,-0.11,1721201020789
0.93,5.83,20.53,0.18,0.25,-0.08,1721201020799
1.05,0.73,6.52,0.19,-0.14,0.12,1721201020809
-1.95,0.48,5.84,-0.03,-0.05,-0.08,1721201020819
3.29,-3.02,16.15,-0.0,0.39,-0.27,1721201020829
-0.17,3.84,12.63,0.1,-0.09,-0.13,1721201020839
-1.25,1.29,11.3,0.02,0.0,-0.02,1721201020849
-2.57,1.39,6.91,0.14,-0.07,0.13,1721201020859
-1.43,1.31,9.93,-0.02,0.11,0.09,1721201020869
0.86,-0.88,7.83,-0.06,-0.09,-0.04,1721201020879
-1.14,3.17,13.2,0.0,0.04,-0.22,1721201020889
-2.17,-0.15,11.69,-0.13,-0.04,-0.06,1721201020899
-2.56,2.75,13.44,0.12,-0.24,0.31,1721201020909
0.98,3.06,5.7,0.03,0.05,0.19,1721201020919
1.35,-1.67,8.77,-0.11,-0.19,-0.03,1721201020929
-2.64,0.23,11.6,-0.14,-0.24,-0.07,1721201020939
-1.1,0.85,8.82,0.07,-0.08,0.2,1721201020949
1.66,1.4,8.3,0.07,0.04,0.21,1721201020959
1.4,1.85,7.28,0.01,-0.15,-0.06,1721201020969
-1.12,0.4,8.38,-0.05,-0.12,-0.19,1721201020979
-0.96,-3.61,16.87,-0.21,0.18,-0.17,1721201020989
-2.27,1.64,10.94,0.14,-0.31,0.22,1721201020999
0.77,0.95,4.25,0.04,0.06,0.28,1721201021009
3.7,-1.19,12.65,-0.06,-0.06,0.01,1721201021019
0.49,2.29,9.66,0.01,-0.25,-0.14,1721201021029
-1.71,-1.11,9.77,-0.1,0.09,-0.34,1721201021039
-2.08,-2.01,14.68,-0.06,-0.03,-0.04,1721201021049
-1.81,-0.23,8.75,0.12,-0.23,0.29,1721201021059
1.82,2.99,7.89,0.13,0.08,0.14,1721201021069
4.47,-2.6,6.19,-0.01,-0.11,-0.13,1721201021079
-0.01,-0.34,16.12,-0.14,-0.07,-0.39,1721201021089
-2.43,-0.45,11.75,0.02,-0.12,-0.16,1721201021099
-1.61,-2.08,6.87,-0.04,0.01,0.15,1721201021109
0.85,2.21,11.14,0.02,0.05,-0.04,1721201021119
4.23,1.86,10.42,0.02,0.01,-0.22,1721201021129
1.18,-3.57,11.77,-0.09,-0.02,-0.23,1721201021139
-2.27,-0.14,14.66,-0.07,0.08,-0.19,1721201021149
-1.35,1.91,6.91,0.02,-0.01,-0.07,1721201021159
-0.38,-2.26,2.96,-0.08,0.03,-0.11,1721201021169
1.56,-1.37,15.26,-0.1,0.24,-0.26,1721201021179
-0.11,-2.33,8.0,-0.01,-0.12,-0.21,1721201021189
-3.74,5.58,15.3,-0.16,0.25,-0.34,1721201021199
-1.05,2.18,14.1,0.03,0.04,-0.15,1721201021209
-2.51,-1.62,0.21,-0.02,-0.21,0.21,1721201021219
0.84,-4.81,12.72,-0.23,0.32,-0.02,1721201021229
1.73,0.59,12.6,-0.06,-0.11,-0.26,1721201021239
-2.77,1.73,7.12,-0.16,-0.11,-0.29,1721201021249
-0.52,5.07,14.17,0.02,0.28,-0.1,1721201021259
2.23,2.25,11.34,-0.06,0.11,-0.06,1721201021269
-1.81,-0.48,6.77,-0.05,-0.31,-0.07,1721201021279
1.2,-3.96,7.44,-0.17,0.33,-0.32,1721201021289
1.06,-1.02,13.21,-0.11,0.0,-0.37,1721201021299
-3.81,2.98,6.03,0.11,-0.14,-0.14,1721201021309
-0.97,0.59,11.77,0.01,0.3,0.06,1721201021319
2.08,4.7,16.32,0.14,0.07,0.02,1721201021329
1.98,5.3,9.56,0.08,-0.0,-0.2,1721201021339
0.47,-0.99,8.38,-0.08,0.11,-0.28,1721201021349
-1.84,0.02,11.56,0.04,0.06,-0.34,1721201021359
-1.25,-2.61,9.62,0.02,0.03,-0.13,1721201021369
-1.42,3.05,7.35,0.13,0.0,0.03,1721201021379
1.03,2.13,15.34,0.01,0.34,-0.12,1721201021389
0.46,3.42,11.78,0.22,-0.16,-0.12,1721201021399
-1.14,-1.08,5.41,0.01,0.1,-0.18,1721201021409
-0.98,-0.15,12.07,0.17,0.08,-0.14,1721201021419
0.54,-0.29,7.67,0.22,0.1,0.06,1721201021429
0.93,0.36,11.03,0.08,0.11,0.03,1721201021439
1.47,3.56,17.27,0.15,0.11,-0.24,1721201021449
-0.75,-6.35,7.4,0.09,-0.03,-0.26,1721201021459
-4.81,4.7,7.8,0.15,0.0,-0.17,1721201021469
-5.83,3.74,18.63,0.08,0.28,0.31,1721201021479
2.75,-3.59,9.12,0.1,0.16,0.32,1721201021489
6.45,1.29,8.52,0.07,0.01,0.1,1721201021499
2.56,-0.53,9.58,0.0,-0.1,-0.65,1721201021509
-2.97,0.45,14.32,0.07,0.04,-0.49,1721201021519
-5.07,0.12,9.0,0.05,0.08,-0.41,1721201021529
-4.14,-4.89,10.75,0.0,0.01,-0.07,1721201021539
-2.64,6.15,9.14,0.12,0.11,0.04,1721201021549
0.94,-0.81,10.14,-0.08,0.16,-0.1,1721201021559
1.28,1.21,11.91,0.15,0.06,-0.23,1721201021569
1.28,-8.3,2.6,-0.15,-0.02,-0.17,1721201021579
-1.42,-1.57,14.31,-0.15,0.16,-0.14,1721201021589
0.26,6.52,13.02,0.2,0.15,-0.3,1721201021599
1.53,-2.38,7.24,-0.17,0.12,-0.21,1721201021609
-3.87,-0.63,8.16,0.0,-0.23,-0.23,1721201021619
-0.42,2.83,17.48,-0.1,0.53,-0.31,1721201021629
0.78,0.5,12.06,0.06,-0.07,-0.08,1721201021639
-3.09,3.33,6.97,-0.11,-0.01,-0.14,1721201021649
0.0,2.47,7.68,0.18,0.11,-0.18,1721201021659
1.92,-4.2,9.12,-0.05,0.13,-0.06,1721201021669
-3.29,3.76,12.27,-0.01,-0.12,-0.26,1721201021679
-2.54,7.44,8.54,0.15,0.01,-0.19,1721201021689
2.01,1.51,10.42,0.04,0.37,-0.11,1721201021699
0.03,-5.21,10.88,-0.05,-0.03,-0.17,1721201021709
-4.96,3.7,4.37,0.22,-0.16,-0.19,1721201021719
0.81,2.84,13.7,0.01,0.58,-0.23,1721201021729
0.27,1.94,15.54,0.18,-0.16,-0.02,1721201021739
-2.96,-0.92,6.39,-0.0,-0.15,0.01,1721201021749
0.14,-0.69,6.15,0.2,0.15,0.21,1721201021759
1.2,3.75,5.32,0.17,0.03,-0.12,1721201021769
-1.7,-1.38,12.33,-0.05,0.03,-0.41,1721201021779
-3.29,0.94,9.23,0.3,0.14,-0.16,1721201021789
1.57,-2.8,9.68,-0.11,0.4,0.01,1721201021799
1.73,4.54,17.28,0.12,-0.18,0.14,1721201021809
0.88,3.9,12.63,-0.05,0.2,-0.26,1721201021819
-2.87,1.71,9.57,0.09,-0.11,-0.4,1721201021829
-5.78,0.51,2.24,0.07,0.02,0.01,1721201021839
-0.79,0.0,13.96,-0.03,0.3,0.32,1721201021849
2.61,-1.44,12.39,0.05,-0.08,0.36,1721201021859
2.82,4.16,8.27,-0.0,0.06,-0.07,1721201021869
4.92,5.0,12.79,-0.0,0.29,-0.3,1721201021879
-1.72,0.06,8.99,-0.09,-0.18,-0.33,1721201021889
-6.59,-1.43,10.89,-0.13,-0.02,-0.09,1721201021899
-3.28,-3.08,13.09,-0.02,0.11,0.38,1721201021909
0.33,2.52,8.67,0.1,0.06,0.47,1721201021919
3.24,-0.58,5.98,-0.11,0.06,0.06,1721201021929
0.42,2.84,13.13,0.05,-0.09,-0.21,1721201021939
-0.74,-2.71,7.22,-0.08,0.04,-0.16,1721201021949
-3.94,-2.66,9.74,-0.09,-0.1,0.18,1721201021959
-1.19,1.82,12.94,-0.07,0.12,0.37,1721201021969
3.84,-2.21,10.57,-0.11,-0.03,0.14,1721201021979
0.99,0.29,9.66,-0.1,-0.13,-0.12,1721201021989
-1.09,2.93,9.55,-0.08,0.09,-0.19,1721201021999
-1.06,-1.27,14.59,-0.1,-0.01,0.06,1721201022009
-0.54,-1.47,6.06,0.04,-0.08,0.26,1721201022019
0.87,-0.86,9.93,-0.12,0.06,0.1,1721201022029
2.66,0.43,11.82,0.01,0.0,0.02,1721201022039
0.89,1.49,7.49,-0.07,-0.06,-0.07,1721201022049
-1.56,5.8,14.51,-0.01,0.0,-0.22,1721201022059
-0.53,-1.91,14.49,-0.07,0.05,-0.13,1721201022069
-2.66,-4.54,3.26,0.06,-0.27,0.13,1721201022079
-1.89,2.85,11.1,0.02,0.33,0.06,1721201022089
2.59,1.02,14.75,0.02,-0.02,0.01,1721201022099
0.04,2.75,14.31,0.08,-0.14,-0.04,1721201022109
-0.3,0.91,6.17,0.16,0.06,-0.02,1721201022119
-0.81,-2.13,7.56,0.05,-0.01,-0.09,1721201022129
-2.65,-2.35,11.29,0.02,-0.11,0.14,1721201022139
-0.98,4.16,11.97,0.23,0.05,0.15,1721201022149
2.21,-2.42,5.42,0.12,-0.05,0.18,1721201022159
1.86,0.51,14.43,0.07,0.04,-0.02,1721201022169
0.35,0.84,10.15,0.12,-0.09,-0.16,1721201022179
-3.06,4.85,14.2,0.13,-0.08,0.02,1721201022189
0.26,-2.24,7.35,0.17,0.03,0.16,1721201022199
1.94,-1.06,11.63,0.16,-0.05,0.07,1721201022209
2.54,0.0,7.28,0.13,-0.02,-0.08,1721201022219
-0.22,4.06,12.36,0.1,-0.01,-0.27,1721201022229
-1.58,-1.55,8.87,0.06,-0.09,-0.07,1721201022239
-2.28,1.89,11.03,0.22,-0.02,0.13,1721201022249
1.79,-4.02,5.87,0.02,0.06,0.03,1721201022259
0.99,4.14,13.36,0.12,-0.05,0.03,1721201022269
1.73,4.97,11.22,0.05,0.15,-0.02,1721201022279
0.86,-1.79,6.26,0.02,-0.12,-0.16,1721201022289
-0.41,-1.3,12.39,-0.08,0.07,-0.16,1721201022299
1.08,2.12,11.57,0.13,0.05,-0.2,1721201022309
0.07,-0.86,9.77,-0.15,0.13,-0.2,1721201022319
-3.59,4.03,12.66,0.09,-0.14,-0.14,1721201022329
-0.21,2.61,7.42,0.02,0.2,-0.14,1721201022339
3.32,-0.84,10.68,-0.05,0.1,-0.15,1721201022349
0.06,3.54,12.28,-0.0,0.0,-0.29,1721201022359
-1.94,2.48,14.82,-0.01,0.15,-0.33,1721201022369
-1.15,-2.53,5.34,0.07,-0.02,-0.13,1721201022379
0.34,1.21,7.54,0.03,0.24,-0.06,1721201022389
1.95,-2.68,10.59,-0.18,0.21,-0.35,1721201022399
-3.19,3.12,12.33,0.08,-0.13,-0.36,1721201022409
-1.02,2.19,10.07,0.01,0.28,-0.14,1721201022419
0.64,-1.03,8.59,0.02,0.11,-0.02,1721201022429
-1.15,0.24,3.89,-0.04,0.08,-0.22,1721201022439
0.71,-3.25,16.27,-0.28,0.35,-0.38,1721201022449
-1.07,2.53,15.86,0.16,0.01,-0.28,1721201022459
-2.88,3.14,6.55,0.03,0.17,-0.1,1721201022469
-1.8,-3.26,6.75,-0.08,0.08,-0.02,1721201022479
0.55,-1.87,11.46,-0.08,0.13,0.01,1721201022489
0.97,1.36,7.88,0.03,0.11,-0.19,1721201022499
-1.83,0.83,7.03,-0.19,0.05,-0.4,1721201022509
-3.63,-1.47,14.75,0.01,0.07,-0.25,1721201022519
-2.73,-3.65,9.7,-0.09,0.14,0.11,1721201022529
-0.9,5.43,12.27,0.03,0.1,0.14,1721201022539
1.82,-0.57,7.51,-0.09,0.03,-0.0,1721201022549
-0.59,5.07,15.18,0.02,0.0,-0.3,1721201022559
0.48,-2.14,5.66,0.1,0.11,-0.17,1721201022569
-2.96,-2.17,12.76,-0.2,0.14,-0.15,1721201022579
-2.16,3.33,13.51,0.08,-0.08,0.08,1721201022589
0.51,1.05,7.2,-0.12,0.12,0.15,1721201022599
1.75,5.31,15.67,0.17,0.21,-0.14,1721201022609
0.97,-0.49,7.07,-0.03,-0.09,-0.31,1721201022619
-5.25,0.22,6.76,-0.04,-0.28,-0.17,1721201022629
-1.7,-0.73,13.33,0.01,0.4,-0.06,1721201022639
1.4,-0.41,12.75,0.18,0.12,0.17,1721201022649
0.85,5.15,4.35,0.15,-0.03,0.12,1721201022659
2.92,5.33,14.09,0.11,0.26,-0.26,1721201022669
-0.71,1.3,9.06,0.16,-0.18,-0.34,1721201022679
-4.04,-5.25,12.5,-0.13,0.02,-0.21,1721201022689
-0.48,2.29,9.41,0.06,0.19,0.18,1721201022704
-1.57,2.51,9.93,0.09,0.23,0.34,1721201022708
3.97,0.2,11.36,0.04,0.15,0.02,1721201022718
3.57,0.72,11.88,0.12,-0.03,-0.33,1721201022728
-1.62,-0.3,9.69,-0.06,0.07,-0.35,1721201022738
-5.26,0.44,9.43,0.15,-0.12,-0.06,1721201022748
-0.43,2.09,11.35,0.04,0.26,0.22,1721201022758
1.54,2.93,9.19,0.11,-0.06,0.12,1721201022768
-1.21,0.45,6.97,-0.0,-0.02,-0.24,1721201022778
-1.24,-4.37,14.28,-0.28,0.22,-0.32,1721201022788
-3.66,1.11,14.03,0.05,-0.28,0.15,1721201022798
-0.47,2.49,10.96,-0.07,0.22,0.29,1721201022808
2.71,3.9,8.31,0.13,-0.08,0.18,1721201022818
1.18,-0.16,2.91,-0.17,-0.01,-0.17,1721201022828
-3.18,-0.15,13.87,-0.29,-0.0,-0.38,1721201022838
-4.18,0.19,16.07,-0.03,-0.03,-0.06,1721201022848
-1.55,-4.11,3.16,-0.12,-0.05,0.52,1721201022858
2.47,2.45,11.88,-0.05,0.21,0.28,1721201022868
5.77,0.51,12.21,-0.14,-0.09,-0.16,1721201022878
-1.92,3.37,12.02,-0.15,-0.24,-0.47,1721201022888
-4.35,1.46,10.05,-0.06,-0.01,-0.19,1721201022898
-3.82,-6.37,5.57,-0.21,-0.03,0.3,1721201022908
-3.1,-2.85,8.16,-0.13,-0.15,0.39,1721201022918
2.23,2.59,18.18,-0.19,0.3,-0.05,1721201022928
2.42,-1.21,12.06,-0.05,-0.35,-0.07,1721201022938
-0.43,4.28,6.22,-0.06,0.17,-0.18,1721201022948
0.66,-0.44,9.12,-0.09,0.01,-0.24,1721201022958
-2.55,-1.21,12.01,-0.12,-0.14,0.04,1721201022968
-1.69,4.71,12.93,0.04,0.09,0.11,1721201022978
3.29,-2.54,4.5,-0.05,-0.07,0.05,1721201022988
0.62,3.44,13.0,-0.04,-0.05,-0.14,1721201022998
1.54,2.65,8.04,0.13,0.03,-0.16,1721201023008
-0.35,-0.46,11.47,-0.01,0.06,-0.12,1721201023018
-2.52,1.97,9.29,0.21,-0.08,0.01,1721201023028
-0.02,-2.7,11.55,0.06,0.13,-0.06,1721201023038
0.93,2.81,16.54,0.27,-0.01,-0.03,1721201023048
0.75,2.6,9.41,0.15,0.09,0.06,1721201023058
-1.23,1.87,9.82,0.16,-0.07,-0.13,1721201023068
0.23,2.3,13.18,0.17,0.15,-0.28,1721201023078
0.03,-2.95,5.47,0.24,-0.19,-0.04,1721201023088
-1.2,-2.32,11.2,0.17,0.09,0.1,1721201023098
2.46,3.85,16.47,0.32,0.33,-0.08,1721201023108
1.19,4.21,3.66,0.44,-0.18,-0.03,1721201023118
0.09,0.76,6.75,0.05,0.31,-0.16,1721201023128
0.66,-1.77,13.92,0.19,0.04,-0.24,1721201023138
-0.86,-0.36,14.52,0.16,0.04,0.04,1721201023148
1.69,1.97,8.55,0.35,0.21,0.13,1721201023158
3.06,0.97,11.96,0.08,0.29,-0.31,1721201023168
0.13,5.62,13.76,0.37,-0.05,-0.23,1721201023178
-1.56,-1.33,2.04,0.12,0.23,-0.19,1721201023188
-1.25,-5.96,8.63,-0.12,0.17,-0.03,1721201023198
-0.08,-2.62,10.96,-0.04,0.02,-0.03,1721201023208
0.24,6.71,8.47,0.09,0.12,0.03,1721201023218
3.62,1.02,10.75,0.01,0.37,-0.13,1721201023228
0.95,-3.12,12.3,-0.08,0.09,-0.37,1721201023238
-3.75,0.89,7.55,0.01,-0.02,-0.25,1721201023248
-1.92,0.11,12.26,-0.31,0.55,-0.12,1721201023258
-0.78,4.64,14.61,0.14,-0.01,0.02,1721201023268
1.19,4.21,5.14,-0.09,0.29,-0.09,1721201023278
0.48,-2.73,4.7,-0.1,0.08,-0.22,1721201023288
-2.01,-3.69,13.92,-0.4,0.32,-0.39,1721201023298
-2.34,4.71,18.01,0.03,0.17,-0.08,1721201023308
-1.26,3.05,3.29,-0.09,0.09,0.03,1721201023318
0.23,2.65,15.1,-0.11,0.3,-0.11,1721201023328
1.73,1.76,7.75,0.04,0.14,-0.21,1721201023338
-1.78,-6.55,12.03,-0.44,0.18,-0.26,1721201023348
-4.24,6.08,21.08,0.08,0.13,-0.3,1721201023358
-1.94,2.91,-0.17,0.17,0.1,0.03,1721201023368
-2.37,-4.01,5.99,-0.19,0.19,0.04,1721201023378
0.45,-4.53,14.99,-0.12,0.15,-0.08,1721201023388
1.13,4.23,14.57,0.03,0.2,-0.14,1721201023398
-0.76,-3.16,4.99,-0.1,0.02,-0.01,1721201023408
-2.74,2.89,14.03,0.04,0.36,-0.1,1721201023418
1.11,-2.57,5.37,0.08,0.05,-0.02,1721201023428
-1.61,-1.98,8.27,-0.18,-0.16,0.16,1721201023438
-1.35,1.89,9.89,0.07,0.34,-0.09,1721201023448
1.62,1.09,16.83,-0.02,0.38,-0.24,1721201023458
-2.47,-0.77,10.16,-0.01,-0.25,0.11,1721201023468
-5.52,5.35,6.19,0.16,0.0,0.22,1721201023478
4.04,-5.71,11.73,-0.2,0.46,0.24,1721201023488
1.6,-5.77,14.65,-0.03,-0.41,0.16,1721201023498
-2.48,4.52,8.15,0.18,0.23,-0.1,1721201023508
-0.1,1.53,14.75,-0.02,0.3,-0.26,1721201023518
-2.21,4.54,14.16,0.21,-0.22,0.02,1721201023528
-3.28,-4.25,-1.41,-0.14,-0.13,0.29,1721201023538
-1.45,1.47,15.65,0.06,0.28,0.26,1721201023548
4.17,-0.21,4.47,0.22,-0.03,0.19,1721201023558
2.58,0.07,9.35,-0.08,0.06,-0.05,1721201023568
1.64,0.91,10.8,0.16,-0.2,-0.07,1721201023578
-1.33,7.82,14.95,0.2,0.37,-0.21,1721201023588
-0.58,-8.74,3.59,-0.1,-0.09,-0.12,1721201023598
-10.56,2.95,12.83,0.18,-0.29,0.07,1721201023608
-0.35,1.21,6.79,0.12,0.44,0.21,1721201023618
3.94,2.14,18.87,0.29,0.33,0.07,1721201023628
0.33,-5.6,3.87,-0.04,-0.18,-0.17,1721201023638
-4.7,3.58,18.22,0.07,0.04,-0.09,1721201023648
-0.71,4.98,3.73,0.4,-0.0,0.23,1721201023658
2.0,-3.56,11.15,-0.12,0.11,0.17,1721201023668
0.51,0.84,7.72,0.33,-0.3,0.08,1721201023678
0.78,1.01,8.14,-0.12,0.35,-0.2,1721201023688
-2.29,-1.37,14.33,-0.06,-0.12,-0.17,1721201023698
-5.5,0.79,13.09,0.06,-0.01,-0.08,1721201023708
-2.0,-1.25,6.67,0.03,0.09,0.19,1721201023718
0.6,1.21,10.53,0.04,0.03,0.23,1721201023728
1.81,-3.13,8.57,-0.24,0.01,-0.01,1721201023738
-1.68,5.32,13.52,0.12,-0.19,-0.1,1721201023748
1.63,1.21,9.65,-0.08,0.25,-0.02,1721201023758
0.25,-4.49,10.95,-0.06,-0.27,0.11,1721201023768
-1.89,2.8,12.5,0.05,-0.01,0.06,1721201023778
0.76,-3.48,0.97,-0.16,-0.06,-0.07,1721201023788
-4.72,0.94,14.07,-0.08,-0.02,-0.25,1721201023798
-2.99,2.2,3.57,0.22,-0.03,0.06,1721201023808
-0.47,-1.76,9.63,-0.29,0.2,0.16,1721201023818
0.35,3.73,16.8,0.12,-0.15,0.07,1721201023828
0.82,-2.41,-1.67,-0.15,-0.09,-0.12,1721201023838
-2.91,-1.56,11.15,-0.28,0.04,-0.12,1721201023848
-0.52,-2.94,19.1,-0.05,0.2,-0.04,1721201023858
-0.64,3.02,16.99,0.26,-0.14,0.14,1721201023868
-0.27,6.12,2.98,0.08,0.02,0.16,1721201023878
0.66,0.8,8.54,-0.29,0.02,-0.04,1721201023888
-0.3,-1.73,15.81,-0.07,-0.21,-0.09,1721201023898
-1.98,-2.2,6.14,0.04,-0.18,0.0,1721201023908
-2.04,1.6,6.97,0.08,-0.03,0.13,1721201023918
2.73,1.33,13.71,-0.06,0.3,0.11,1721201023928
1.76,8.04,12.95,0.17,-0.12,-0.06,1721201023938
2.03,3.97,13.47,-0.05,0.19,-0.31,1721201023948
-2.31,-2.26,9.81,0.03,-0.33,-0.19,1721201023958
-7.34,2.99,6.98,0.02,-0.1,0.2,1721201023968
1.05,0.25,17.7,-0.22,0.19,0.3,1721201023978
1.03,-3.42,-1.99,0.13,-0.56,0.18,1721201023988
1.55,1.38,19.26,-0.41,0.8,-0.24,1721201023998
3.4,4.8,20.55,0.07,-0.08,-0.15,1721201024008
-1.28,-1.34,3.69,-0.24,-0.24,0.07,1721201024018
-0.76,1.48,15.79,0.09,0.11,-0.12,1721201024028
0.27,4.16,10.62,0.07,0.05,-0.19,1721201024038
0.35,4.26,11.94,0.04,-0.28,0.04,1721201024048
-2.33,1.28,4.41,0.09,-0.21,0.11,1721201024058
0.78,-3.34,10.52,-0.21,0.29,0.07,1721201024068
-0.91,-3.4,9.71,-0.08,-0.23,-0.05,1721201024078
-1.37,8.59,16.35,0.08,0.25,-0.1,1721201024088
3.61,0.88,9.06,0.05,-0.09,0.02,1721201024098
-0.33,-2.81,7.58,-0.19,-0.31,0.06,1721201024108
-0.47,1.83,15.65,-0.01,0.07,-0.03,1721201024118
-0.42,4.84,0.27,0.21,-0.12,-0.28,1721201024128
-0.85,0.97,10.51,-0.19,0.23,-0.3,1721201024138
-0.0,-3.45,18.11,0.18,-0.04,-0.03,1721201024148
-2.21,4.18,6.95,0.2,-0.01,0.16,1721201024158
0.37,-0.78,9.91,-0.23,0.07,0.03,1721201024168
0.47,6.94,14.3,0.27,-0.19,-0.12,1721201024178
3.38,2.31,2.82,0.04,0.09,-0.34,1721201024188
-1.52,-2.34,5.2,-0.01,-0.29,-0.19,1721201024198
-3.9,-3.17,11.3,-0.11,0.23,-0.11,1721201024208
-0.21,-1.7,15.6,0.06,0.07,-0.04,1721201024218
-1.43,6.08,9.27,0.21,-0.06,-0.06,1721201024228
2.94,1.59,9.22,-0.14,0.33,-0.14,1721201024238
0.85,-1.76,10.87,-0.04,-0.31,-0.06,1721201024248
-0.8,-1.76,13.29,-0.11,0.27,-0.24,1721201024258
-0.07,-0.73,13.15,0.17,0.05,-0.25,1721201024268
-2.88,-0.11,3.12,-0.03,-0.15,-0.06,1721201024278
0.88,3.99,13.92,0.05,0.31,0.08,1721201024288
3.42,1.21,4.89,-0.0,0.04,-0.27,1721201024298
-0.91,-2.44,13.82,-0.24,0.03,-0.57,1721201024308
-2.82,-5.45,11.46,-0.05,0.1,-0.28,1721201024318
-2.52,1.87,14.09,0.07,0.24,0.08,1721201024328
-0.23,6.2,4.08,0.13,0.04,0.06,1721201024338
2.26,-2.31,10.07,-0.23,0.22,-0.22,1721201024348
0.32,-1.39,12.63,0.11,-0.08,-0.28,1721201024358
-1.64,0.31,9.02,-0.11,0.26,-0.14,1721201024368
-2.13,7.73,10.02,0.18,0.03,-0.14,1721201024378
-0.74,-0.78,1.39,-0.12,0.18,-0.09,1721201024388
-0.56,-1.95,17.17,-0.22,0.25,-0.09,1721201024398
-1.93,-0.29,11.67,0.06,-0.15,-0.05,1721201024408
-1.93,3.44,8.36,-0.06,0.19,-0.07,1721201024418
1.18,4.85,12.34,-0.06,0.32,-0.2,1721201024428
-0.14,0.54,10.54,-0.13,0.04,-0.15,1721201024438
-2.92,-0.54,10.18,-0.02,-0.09,-0.02,1721201024448
-2.8,-2.39,5.53,-0.09,0.12,0.02,1721201024458
-1.75,4.59,18.73,-0.08,0.34,-0.14,1721201024468
-0.79,2.77,8.94,0.13,-0.16,-0.1,1721201024478
-2.55,3.62,2.93,-0.03,0.19,-0.06,1721201024488
2.27,0.06,17.43,-0.1,0.37,-0.05,1721201024498
-3.37,-2.29,8.95,0.04,-0.35,-0.01,1721201024508
-4.63,3.19,11.82,-0.0,0.1,0.06,1721201024518
-0.47,6.85,8.27,0.35,0.04,0.13,1721201024528
1.05,2.43,3.56,0.04,0.04,0.03,1721201024538
-1.11,-9.21,12.01,-0.37,-0.14,-0.03,1721201024548
-5.51,4.25,15.35,0.2,-0.22,-0.14,1721201024558
-0.59,1.31,6.62,0.04,0.25,0.01,1721201024568
-1.68,-0.56,6.08,0.19,-0.29,0.23,1721201024578
-1.49,-0.85,10.77,-0.15,0.25,0.21,1721201024588
-0.34,4.51,16.93,0.26,-0.18,0.12,1721201024598
-1.05,0.1,4.54,-0.04,-0.12,0.04,1721201024608
-2.13,3.77,12.81,0.02,-0.13,0.06,1721201024618
2.21,-4.1,11.17,-0.05,-0.04,0.07,1721201024628
0.11,-0.74,8.41,0.08,-0.2,0.08,1721201024638
-1.71,0.09,3.99,0.02,-0.04,-0.21,1721201024648
-1.9,-0.89,14.77,-0.18,0.05,-0.21,1721201024658
-2.0,-0.89,12.41,0.09,-0.2,0.1,1721201024668
0.0,-0.99,12.85,-0.09,0.06,0.16,1721201024678
-0.58,0.78,8.55,0.03,-0.29,0.07,1721201024688
-1.09,5.06,11.17,0.02,0.02,-0.04,1721201024698
-0.75,0.09,11.01,0.0,0.05,-0.04,1721201024713
-2.85,0.4,7.85,-0.0,-0.28,-0.03,1721201024717
0.7,-1.29,11.85,-0.15,0.14,0.02,1721201024727
0.39,2.44,13.95,0.09,-0.24,0.1,1721201024737
1.35,4.33,8.21,0.05,0.02,0.03,1721201024747
2.36,-1.73,7.34,-0.05,-0.15,-0.05,1721201024757
-1.88,3.45,9.08,0.17,-0.2,-0.17,1721201024767
-0.28,2.73,8.13,-0.05,0.05,-0.15,1721201024777
-1.36,1.98,17.02,0.06,-0.34,0.06,1721201024787
-0.88,-1.52,8.38,-0.0,-0.04,0.11,1721201024797
0.06,-0.83,6.93,-0.05,-0.1,0.02,1721201024807
0.15,2.38,13.96,-0.05,-0.01,-0.12,1721201024817
0.82,3.92,12.27,0.13,-0.03,-0.16,1721201024827
-1.06,2.19,7.53,0.02,-0.1,-0.11,1721201024837
-0.43,2.61,16.75,0.0,0.04,0.01,1721201024847
0.6,-1.53,3.54,0.17,-0.32,0.08,1721201024857
0.79,0.26,9.42,-0.1,0.17,-0.12,1721201024867
1.95,-0.24,13.2,0.09,-0.13,-0.4,1721201024877
-1.15,4.88,10.09,0.32,-0.19,-0.29,1721201024887
-1.27,-1.53,3.52,-0.09,0.05,-0.16,1721201024897
-3.24,3.25,18.73,-0.03,-0.03,-0.14,1721201024907
1.7,-0.99,10.74,0.04,0.05,-0.14,1721201024917
1.57,-0.34,9.33,0.04,-0.1,-0.1,1721201024927
-3.11,1.35,3.62,0.01,-0.19,-0.26,1721201024937
-2.21,2.54,11.3,0.09,0.14,-0.21,1721201024947
1.84,-1.29,9.93,-0.09,0.16,-0.1,1721201024957
0.62,2.34,16.43,-0.04,-0.13,-0.08,1721201024967
0.94,1.64,8.99,0.08,0.03,-0.32,1721201024977
1.18,0.16,11.91,-0.09,0.21,-0.42,1721201024987
-2.28,5.11,8.94,0.25,-0.21,-0.14,1721201024997
-0.97,-0.03,9.07,-0.16,0.24,-0.17,1721201025007
-2.26,-1.59,7.39,0.11,-0.47,-0.08,1721201025017
0.71,-1.11,12.01,-0.07,0.47,-0.18,1721201025027
2.92,2.12,14.33,0.16,0.07,-0.32,1721201025037
-2.52,7.13,10.59,-0.01,0.02,-0.42,1721201025047
-3.55,0.61,7.6,-0.03,0.01,-0.37,1721201025057
-1.81,-9.18,9.87,-0.16,0.16,0.01,1721201025067
-0.69,3.56,16.29,0.25,0.11,0.04,1721201025077
2.32,1.92,3.7,0.11,0.07,-0.09,1721201025087
-0.02,4.01,10.87,0.06,-0.08,-0.33,1721201025097
-0.3,-0.82,7.73,0.04,0.18,-0.48,1721201025107
-1.92,-2.43,11.97,-0.01,0.13,-0.24,1721201025117
-2.61,2.09,11.19,0.1,0.06,-0.01,1721201025127
-0.95,1.14,4.5,-0.01,0.16,-0.08,1721201025137
2.15,-1.78,18.42,-0.04,0.28,-0.17,1721201025147
0.12,-0.67,7.41,0.19,-0.13,-0.24,1721201025157
-2.07,6.37,5.8,0.0,0.27,-0.27,1721201025167
-0.11,-1.41,14.19,-0.16,0.29,-0.3,1721201025177
-3.55,0.71,11.78,0.19,-0.15,-0.06,1721201025187
-0.26,3.12,4.73,0.01,0.4,0.12,1721201025197
4.33,-0.36,15.14,-0.03,0.22,-0.08,1721201025207
-0.11,3.69,10.63,0.14,-0.03,-0.32,1721201025217
-1.9,-3.72,5.57,-0.17,0.13,-0.17,1721201025227
-2.76,7.07,15.67,0.33,0.13,-0.02,1721201025237
4.45,0.59,7.33,0.1,0.25,0.12,1721201025247
0.67,2.88,6.29,0.08,-0.24,-0.02,1721201025257
-2.03,0.42,10.04,-0.2,0.56,-0.55,1721201025267
-3.34,-0.91,19.4,0.07,0.12,-0.42,1721201025277
-5.92,-0.24,4.44,0.11,-0.12,0.15,1721201025287
-0.64,0.83,9.23,-0.0,0.38,0.58,1721201025297
4.88,4.0,13.06,0.1,0.25,0.23,1721201025307
4.32,2.41,10.89,0.05,0.02,-0.18,1721201025317
-0.64,-3.79,8.09,-0.18,-0.03,-0.37,1721201025327
-4.92,6.57,14.33,0.2,0.14,-0.27,1721201025337
-1.08,-9.21,5.71,-0.31,0.16,0.15,1721201025347
-2.55,4.56,21.37,0.19,-0.05,0.21,1721201025357
2.38,3.24,-0.79,0.28,0.23,0.05,1721201025367
2.26,2.61,10.35,-0.2,0.19,-0.2,1721201025377
-1.18,-1.86,10.59,0.05,-0.14,-0.1,1721201025387
-2.84,-0.63,14.02,0.01,0.32,0.06,1721201025397
-0.29,6.52,9.98,0.21,0.18,0.15,1721201025407
1.66,-3.65,7.65,-0.28,0.02,0.17,1721201025417
0.13,3.72,13.15,0.23,-0.11,0.07,1721201025427
4.54,-2.83,5.06,-0.16,0.53,-0.15,1721201025437
-0.5,4.34,18.76,0.11,-0.13,-0.24,1721201025447
-4.9,-0.49,-1.26,0.05,-0.1,-0.09,1721201025457
-4.24,3.32,16.85,-0.03,0.32,0.11,1721201025467
1.21,-2.56,7.85,0.07,0.1,0.22,1721201025477
1.61,4.64,12.92,0.06,0.19,0.08,1721201025487
3.45,-3.47,5.1,-0.09,0.07,-0.14,1721201025497
-3.05,1.18,13.6,-0.12,-0.05,-0.25,1721201025507
-3.09,1.09,8.4,0.09,0.18,-0.1,1721201025517
0.47,3.77,15.7,0.02,0.43,0.03,1721201025527
0.1,-1.88,6.03,-0.0,-0.19,0.15,1721201025537
-3.47,3.48,9.53,-0.12,0.18,-0.02,1721201025547
0.82,2.29,10.5,0.07,0.31,-0.22,1721201025557
1.13,1.32,14.94,-0.01,0.15,-0.14,1721201025567
-2.58,-2.06,3.45,0.12,-0.18,0.06,1721201025577
-1.39,1.11,9.0,-0.15,0.4,0.19,1721201025587
2.04,2.72,16.97,0.09,0.14,0.07,1721201025597
0.82,0.28,5.41,0.04,-0.07,-0.11,1721201025607
-1.64,7.69,12.87,0.14,0.21,-0.24,1721201025617
-0.75,-2.41,11.52,-0.12,0.15,-0.12,1721201025627
-3.9,0.01,10.94,0.1,-0.27,0.2,1721201025637
-0.06,0.55,7.44,-0.03,0.47,0.04,1721201025647
1.4,3.46,17.05,0.07,0.17,-0.1,1721201025657
-1.4,4.32,4.87,0.26,-0.25,-0.06,1721201025667
-3.29,-2.86,1.87,-0.28,0.11,-0.05,1721201025677
-2.76,3.21,18.09,0.09,0.08,0.07,1721201025687
2.49,-2.07,11.99,-0.04,0.32,0.15,1721201025697
1.26,2.15,8.63,0.1,-0.25,0.17,1721201025707
2.43,1.01,10.99,-0.1,0.36,-0.14,1721201025717
0.8,0.17,12.8,0.09,-0.01,-0.29,1721201025727
-4.74,6.6,8.66,0.09,-0.02,-0.14,1721201025737
-3.64,1.48,7.1,-0.09,0.03,0.08,1721201025747
-0.46,-6.43,16.46,-0.08,0.01,0.22,1721201025757
1.37,2.17,8.01,0.25,-0.09,0.24,1721201025767
2.2,3.63,5.68,-0.12,0.23,-0.07,1721201025777
-1.23,4.05,12.46,0.12,-0.09,-0.32,1721201025787
-1.84,-8.83,12.12,-0.23,0.12,-0.04,1721201025797
-2.83,1.89,4.19,0.37,-0.29,0.37,1721201025807
1.38,6.33,9.74,-0.22,0.59,0.13,1721201025817
4.51,-1.36,15.74,-0.0,-0.47,-0.0,1721201025827
-4.62,4.47,8.27,0.21,0.01,-0.02,1721201025837
1.02,-7.01,7.96,-0.27,0.3,-0.04,1721201025847
-4.46,3.45,18.31,0.11,-0.33,0.1,1721201025857
0.95,2.66,6.14,-0.04,0.29,0.22,1721201025867
2.69,2.0,14.75,0.09,-0.07,0.06,1721201025877
-0.17,4.56,6.7,0.17,-0.05,-0.05,1721201025887
-0.14,-0.49,10.82,-0.13,0.09,-0.06,1721201025897
-2.67,-3.91,11.66,-0.02,-0.26,0.0,1721201025907
-4.05,-0.64,7.64,-0.04,-0.03,0.1,1721201025917
1.06,8.59,15.83,0.33,0.19,0.15,1721201025927
2.34,-1.79,1.28,-0.11,-0.1,0.11,1721201025937
-4.71,-0.66,8.67,-0.04,-0.24,-0.05,1721201025947
1.92,-2.32,12.32,-0.02,0.52,-0.09,1721201025957
1.34,-4.34,11.71,-0.11,-0.25,0.09,1721201025967
-3.59,9.48,15.59,0.31,-0.13,0.18,1721201025977
2.13,6.22,-2.25,0.21,0.11,-0.0,1721201025987
0.17,-3.3,12.06,-0.34,-0.11,-0.0,1721201025997
-0.48,-2.93,20.54,0.1,-0.23,-0.04,1721201026007
-0.39,3.17,7.93,0.19,0.05,-0.12,1721201026017
-1.93,2.14,3.58,0.04,-0.13,-0.01,1721201026027
-4.87,1.01,8.15,-0.17,-0.04,0.01,1721201026037
-1.15,-0.43,11.62,0.07,-0.07,0.09,1721201026047
2.76,-0.46,9.65,-0.09,0.16,0.23,1721201026057
1.34,0.87,13.87,-0.13,0.05,-0.11,1721201026067
0.06,2.13,14.0,0.07,0.01,-0.26,1721201026077
-0.85,-0.1,6.96,-0.02,-0.04,-0.08,1721201026087
-2.78,4.3,10.72,0.05,-0.15,-0.02,1721201026097
-1.44,-0.51,4.66,-0.2,0.04,-0.08,1721201026107
-0.31,4.31,20.7,0.14,0.05,0.05,1721201026117
1.96,-3.78,3.86,-0.06,0.04,0.1,1721201026127
-1.15,1.4,12.14,-0.06,-0.17,-0.1,1721201026137
-1.5,3.12,2.84,-0.04,-0.02,-0.27,1721201026147
-2.2,6.65,17.92,0.04,0.1,-0.18,1721201026157
-0.06,-1.09,7.47,0.0,0.01,0.02,1721201026167
-0.08,-6.04,11.45,-0.15,-0.12,0.23,1721201026177
-1.1,2.15,10.15,0.12,-0.07,0.02,1721201026187
0.71,5.58,7.41,0.03,0.12,-0.3,1721201026197
-1.76,-0.45,5.19,-0.03,-0.19,-0.18,1721201026207
-3.46,4.12,13.54,0.03,0.14,0.09,1721201026217
1.16,-3.84,8.54,0.0,0.06,0.18,1721201026227
-0.3,1.4,15.8,-0.15,0.01,-0.06,1721201026237
0.03,1.94,12.11,-0.04,-0.1,-0.22,1721201026247
-2.65,2.89,7.7,0.1,-0.12,-0.14,1721201026257
0.12,-0.49,13.5,-0.12,0.32,-0.03,1721201026267
-0.02,-1.96,7.75,0.08,-0.38,0.3,1721201026277
0.37,8.49,17.35,0.11,0.42,-0.08,1721201026287
2.55,-3.27,3.9,0.03,-0.29,-0.24,1721201026297
-6.22,0.91,13.05,-0.17,-0.09,-0.29,1721201026307
-1.48,1.08,7.98,0.29,0.15,-0.1,1721201026317
-1.81,-6.76,5.27,-0.34,-0.06,0.22,1721201026327
-2.36,5.47,20.33,0.25,-0.21,0.25,1721201026337
5.42,1.56,3.27,0.17,0.18,0.01,1721201026347
1.5,-1.66,5.25,-0.16,-0.18,-0.21,1721201026357
-3.2,4.22,15.31,0.13,-0.03,-0.3,1721201026367
0.1,2.34,16.06,0.04,0.29,-0.08,1721201026377
-2.17,-1.47,3.02,0.15,-0.39,0.15,1721201026387
-2.8,-5.69,9.2,-0.32,0.11,0.03,1721201026397
0.4,8.07,15.48,0.32,-0.04,0.09,1721201026407
4.37,1.72,6.64,-0.14,0.27,-0.09,1721201026417
-0.39,-3.56,6.61,-0.06,-0.57,-0.13,1721201026427
-5.77,-2.43,14.53,-0.07,0.36,-0.16,1721201026437
1.22,-0.91,10.86,0.1,0.09,0.07,1721201026447
1.65,-0.02,11.71,-0.11,-0.15,0.14,1721201026457
0.67,10.05,10.37,0.4,-0.1,-0.07,1721201026467
1.03,-4.48,-0.43,-0.2,-0.01,-0.36,1721201026477
-7.51,-3.75,22.72,-0.14,-0.42,-0.11,1721201026487
-3.72,5.63,6.48,0.37,0.08,0.11,1721201026497
3.51,-4.47,6.43,-0.29,0.22,0.03,1721201026507
-2.18,3.12,16.78,0.1,-0.34,-0.12,1721201026517
-1.57,-0.52,1.26,0.01,0.13,-0.1,1721201026527
-0.1,2.25,15.36,-0.04,0.09,0.02,1721201026537
2.17,0.32,11.77,0.07,0.02,0.0,1721201026547
1.72,-0.79,8.8,-0.01,0.02,-0.2,1721201026557
-2.38,2.38,12.88,0.06,0.0,-0.32,1721201026567
-3.98,6.26,7.08,0.16,-0.04,-0.04,1721201026577
0.15,-1.57,11.28,-0.22,0.1,0.18,1721201026587
2.66,-0.91,16.54,0.07,-0.08,0.0,1721201026597
1.73,-0.3,7.71,-0.01,0.01,-0.22,1721201026607
-1.82,3.57,11.51,0.07,-0.05,-0.18,1721201026617
-3.2,0.85,6.0,-0.03,0.01,-0.11,1721201026627
-1.84,2.41,12.8,0.09,0.08,-0.01,1721201026637
0.97,-4.01,6.91,-0.14,0.05,-0.01,1721201026647
-2.63,2.97,11.26,0.03,-0.19,-0.07,1721201026657
-0.62,4.07,10.87,0.06,0.27,-0.02,1721201026667
1.6,-0.92,13.39,-0.14,0.05,-0.05,1721201026677
-2.19,-0.12,7.49,0.14,-0.43,-0.03,1721201026687
1.43,1.15,12.97,-0.14,0.52,-0.07,1721201026697
2.08,-0.48,9.5,0.11,-0.32,0.03,1721201026707
2.66,-0.54,12.43,0.08,-0.1,-0.04,1721201026722
1.34,2.03,8.93,0.21,0.23,-0.16,1721201026726
0.71,-0.67,11.63,-0.12,0.05,-0.22,1721201026736
-3.07,3.56,13.75,0.04,-0.24,-0.07,1721201026746
-1.11,0.5,8.91,-0.06,0.19,-0.07,1721201026756
-0.49,3.28,17.67,0.05,0.11,-0.08,1721201026766
-2.12,-4.55,-1.77,0.08,-0.43,0.03,1721201026776
-2.05,0.55,14.74,-0.07,0.48,-0.07,1721201026786
2.46,-3.4,11.22,-0.01,-0.03,-0.04,1721201026796
-3.49,8.9,7.09,0.11,-0.31,-0.1,1721201026806
1.62,2.14,8.28,-0.09,0.37,-0.24,1721201026816
3.03,-7.54,23.24,-0.26,-0.01,0.05,1721201026826
-3.43,7.99,6.99,0.34,-0.46,0.09,1721201026836
-0.04,0.86,3.14,-0.48,0.44,-0.29,1721201026846
-6.86,1.54,30.21,0.1,-0.58,-0.05,1721201026856
-5.32,-4.06,-1.3,-0.02,-0.32,0.14,1721201026866
-2.38,-1.84,11.58,-0.27,0.02,0.08,1721201026876
2.83,3.48,13.54,0.12,0.03,0.03,1721201026886
3.46,3.46,10.12,-0.16,0.01,-0.24,1721201026896
-2.38,7.12,7.59,0.13,-0.36,-0.4,1721201026906
-3.33,-8.62,5.42,-0.43,0.1,-0.22,1721201026916
-5.1,-1.45,17.15,-0.08,-0.34,0.15,1721201026926
0.09,6.95,3.37,0.02,0.02,0.25,1721201026936
6.27,-0.77,16.06,-0.4,0.15,-0.06,1721201026946
2.38,2.47,14.65,0.0,-0.44,-0.16,1721201026956
2.27,5.91,7.36,0.06,0.31,-0.37,1721201026966
2.12,2.05,10.93,-0.1,-0.07,-0.29,1721201026976
-3.76,-0.11,6.89,-0.08,-0.42,-0.03,1721201026986
-1.87,-2.48,11.26,-0.16,0.27,-0.01,1721201026996
0.03,5.27,12.04,0.23,-0.04,-0.06,1721201027006
1.81,-2.78,5.9,-0.07,0.13,-0.08,1721201027016
0.22,2.28,13.42,0.02,-0.06,-0.19,1721201027026
0.08,1.37,14.75,-0.03,0.07,-0.14,1721201027036
-2.73,5.61,10.03,0.24,-0.06,-0.0,1721201027046
0.02,-2.53,7.2,-0.01,0.16,-0.02,1721201027056
0.45,0.96,12.6,0.06,-0.23,0.09,1721201027066
0.39,4.99,6.65,0.1,0.09,-0.1,1721201027076
1.91,0.17,12.12,0.08,0.13,-0.36,1721201027086
-0.74,-4.05,11.22,-0.04,-0.09,-0.22,1721201027096
-4.62,3.0,2.15,0.26,-0.18,0.08,1721201027106
1.56,5.49,17.59,-0.04,0.64,0.03,1721201027116
2.05,3.6,13.65,0.25,-0.33,-0.08,1721201027126
-2.55,-1.63,8.63,-0.18,0.0,-0.29,1721201027136
-2.57,1.13,6.77,0.22,-0.2,-0.13,1721201027146
-0.52,-4.4,7.31,-0.13,0.17,0.2,1721201027156
1.83,-0.66,7.15,0.28,-0.04,0.15,1721201027166
0.12,-2.11,4.09,-0.29,-0.25,-0.49,1721201027176
1.12,-6.29,15.48,0.09,0.08,-0.14,1721201027186
-0.66,-3.64,9.04,-0.24,0.32,0.03,1721201027196
-4.52,-4.16,14.02,-0.13,-0.54,0.52,1721201027206
-0.9,12.19,8.35,0.09,0.52,0.07,1721201027216
5.58,-8.46,8.2,-0.31,-0.22,-0.22,1721201027226
-2.62,1.02,14.26,0.03,-0.35,-0.18,1721201027236
-0.75,-0.53,2.59,-0.04,0.15,0.24,1721201027246
-1.0,1.84,21.14,-0.1,0.2,0.13,1721201027256
1.64,-0.2,7.96,-0.01,-0.27,0.02,1721201027266
1.83,0.01,6.31,-0.1,-0.04,0.13,1721201027276
2.22,4.45,11.71,-0.08,0.18,-0.28,1721201027286
0.04,3.4,13.69,0.04,-0.24,-0.37,1721201027296
-2.39,-5.23,6.42,-0.03,0.07,-0.15,1721201027306
-5.22,0.99,14.06,-0.07,0.2,-0.22,1721201027316
-2.14,6.08,11.26,0.15,-0.08,0.03,1721201027326
2.25,-2.13,4.89,0.15,0.07,0.49,1721201027336
4.04,2.72,14.05,0.16,0.13,0.08,1721201027346
3.34,-0.24,11.15,0.03,-0.05,-0.35,1721201027356
-2.58,3.22,9.82,0.07,-0.14,-0.51,1721201027366
-4.28,-0.81,8.51,0.0,0.11,-0.22,1721201027376
-2.63,-1.11,14.64,0.17,0.04,0.22,1721201027386
1.06,7.38,8.68,0.37,0.11,0.26,1721201027396
3.68,-7.08,8.65,-0.2,0.04,-0.12,1721201027406
0.04,8.67,17.23,0.26,-0.17,-0.21,1721201027416
0.92,1.36,3.72,0.05,0.22,-0.25,1721201027426
-3.29,-4.02,12.42,0.01,-0.23,-0.08,1721201027436
-2.89,2.65,9.34,0.22,0.09,0.08,1721201027446
3.01,-0.43,8.39,0.06,0.23,0.01,1721201027456
2.03,-3.1,12.62,0.0,-0.17,-0.08,1721201027466
-1.34,7.33,14.19,0.24,0.09,-0.26,1721201027476
-1.35,-2.22,0.39,0.04,-0.01,-0.14,1721201027486
-4.23,-1.49,14.23,-0.06,-0.07,0.06,1721201027496
0.68,-0.02,6.86,0.11,0.03,0.06,1721201027506
2.18,1.77,13.28,-0.12,0.16,-0.16,1721201027516
1.54,1.84,13.71,0.05,0.1,-0.14,1721201027526
-0.7,0.37,2.34,-0.0,-0.1,-0.23,1721201027536
-0.46,-0.1,15.57,-0.06,0.29,-0.19,1721201027546
0.83,0.17,7.28,0.05,-0.03,-0.12,1721201027556
-1.54,3.03,10.33,-0.19,0.04,-0.23,1721201027566
-0.54,-1.59,12.61,-0.18,0.08,-0.3,1721201027576
-0.34,1.02,12.93,-0.08,0.03,0.03,1721201027586
0.62,2.04,6.97,-0.08,0.17,-0.06,1721201027596
0.4,-1.71,9.17,-0.28,0.13,-0.35,1721201027606
-1.84,6.43,16.0,0.07,-0.05,-0.34,1721201027616
-0.05,-3.17,5.99,-0.08,-0.02,0.01,1721201027626
-0.84,-0.03,12.9,-0.14,0.06,0.04,1721201027636
1.0,3.97,8.12,0.1,0.18,-0.2,1721201027646
1.99,-3.0,9.17,-0.16,0.24,-0.4,1721201027656
-2.59,2.2,10.98,-0.01,-0.27,-0.35,1721201027666
-4.51,4.15,8.05,-0.0,0.13,-0.22,1721201027676
-1.95,-2.77,10.47,-0.01,0.24,0.0,1721201027686
0.2,-2.38,15.57,-0.11,0.17,0.09,1721201027696
0.69,2.95,8.57,0.06,-0.14,-0.2,1721201027706
-0.02,-2.25,6.52,-0.17,0.16,-0.46,1721201027716
-1.99,4.5,13.57,0.25,0.14,-0.35,1721201027726
-0.21,-6.74,6.85,-0.06,0.11,0.02,1721201027736
-3.55,8.27,12.05,0.19,-0.08,0.15,1721201027746
2.77,1.81,9.53,-0.05,0.32,-0.2,1721201027756
-0.34,-1.73,10.43,0.05,-0.31,-0.45,1721201027766
-3.67,1.03,9.6,0.13,0.36,-0.31,1721201027776
-1.05,-8.3,8.17,-0.02,0.08,0.04,1721201027786
-3.25,5.18,11.97,0.12,0.04,0.1,1721201027796
2.72,7.21,9.33,0.22,0.39,-0.33,1721201027806
1.67,-4.28,13.71,-0.03,0.0,-0.3,1721201027816
-3.6,-0.34,10.89,0.07,-0.12,-0.25,1721201027826
-1.52,2.8,7.12,0.19,0.2,0.02,1721201027836
2.2,0.09,11.51,-0.04,0.25,-0.14,1721201027846
-1.36,-2.37,7.65,0.04,-0.16,-0.41,1721201027856
-5.45,-0.06,6.27,0.17,0.15,-0.36,1721201027866
1.14,-1.01,16.52,0.11,0.61,-0.1,1721201027876
2.25,1.81,17.72,0.17,0.05,0.04,1721201027886
-0.96,8.46,11.67,0.15,0.07,-0.27,1721201027896
-0.25,-3.74,0.46,0.11,-0.02,-0.32,1721201027906
-3.38,3.59,14.11,0.2,0.23,-0.27,1721201027916
-0.17,-2.11,6.86,0.19,0.16,-0.13,1721201027926
-2.32,1.68,10.41,0.05,0.02,-0.14,1721201027936
-0.7,1.4,13.56,0.09,0.31,-0.12,1721201027946
-2.14,0.72,6.11,0.08,-0.04,-0.04,1721201027956
-1.33,-0.76,12.36,-0.05,0.27,-0.1,1721201027966
1.96,3.09,13.24,0.17,0.14,-0.09,1721201027976
2.26,3.14,12.53,0.11,0.22,-0.08,1721201027986
-1.2,-0.66,4.41,0.01,-0.13,-0.06,1721201027996
-2.83,1.52,14.09,-0.08,0.25,-0.07,1721201028006
1.58,0.14,14.06,0.06,0.14,-0.14,1721201028016
-3.05,3.69,0.96,0.14,-0.17,-0.07,1721201028026
0.33,-2.67,10.72,-0.31,0.49,-0.03,1721201028036
-0.7,-1.22,16.52,0.06,-0.12,-0.06,1721201028046
-3.31,4.55,9.51,0.06,0.05,-0.0,1721201028056
-1.47,1.74,6.42,-0.09,0.2,0.0,1721201028066
-3.01,-4.0,11.81,-0.25,-0.07,0.01,1721201028076
-3.75,-1.14,8.15,-0.04,-0.13,0.21,1721201028086
-0.6,2.91,8.41,-0.02,0.21,0.36,1721201028096
2.14,0.41,9.66,-0.16,0.08,0.22,1721201028106
1.94,-1.24,12.88,-0.18,0.04,0.02,1721201028116
0.74,2.96,8.71,-0.15,0.07,-0.03,1721201028126
-1.37,-1.35,12.31,-0.43,0.1,-0.09,1721201028136
-3.76,1.29,13.95,-0.08,-0.16,0.01,1721201028146
-0.91,-0.66,5.46,-0.11,0.12,0.23,1721201028156
-0.53,-3.46,10.13,-0.25,-0.07,0.27,1721201028166
-1.99,2.19,14.05,-0.03,-0.04,0.17,1721201028176
0.06,1.0,8.96,-0.06,0.14,0.11,1721201028186
-1.55,1.9,10.43,-0.0,-0.14,0.12,1721201028196
0.05,-0.94,13.04,-0.07,0.06,0.21,1721201028206
1.87,-0.4,4.43,-0.08,-0.16,0.37,1721201028216
1.31,3.22,16.58,-0.16,0.26,-0.09,1721201028226
0.1,-1.28,7.98,0.16,-0.3,-0.02,1721201028236
-0.91,-5.56,6.13,-0.2,0.16,0.07,1721201028246
-0.1,-2.26,16.65,-0.0,-0.14,0.31,1721201028256
1.16,7.03,8.61,0.13,0.09,0.27,1721201028266
2.98,8.66,12.6,0.11,0.06,0.01,1721201028276
1.64,-2.37,10.22,0.07,-0.13,-0.15,1721201028286
-2.19,-7.26,5.76,-0.12,-0.11,-0.01,1721201028296
-3.26,-8.41,9.11,-0.06,0.0,0.29,1721201028306
-0.84,12.53,20.43,0.25,0.23,0.21,1721201028316
4.78,-0.24,2.13,0.12,-0.26,0.22,1721201028326
2.6,-1.94,12.09,-0.05,0.2,-0.06,1721201028336
0.23,1.56,14.34,0.08,0.06,-0.41,1721201028346
-6.24,-0.29,4.91,0.14,-0.28,-0.03,1721201028356
-3.36,-2.63,14.23,-0.09,0.22,0.45,1721201028366
4.76,-2.48,7.74,0.16,-0.19,0.64,1721201028376
5.38,5.64,11.99,0.11,0.13,-0.07,1721201028386
3.46,1.3,8.35,0.16,-0.15,-0.5,1721201028396
-4.89,-3.3,11.86,-0.05,-0.06,-0.47,1721201028406
-6.99,6.56,13.54,0.39,0.01,0.14,1721201028416
0.16,-1.2,4.89,0.16,0.06,0.54,1721201028426
4.06,3.17,10.99,0.31,0.0,0.34,1721201028436
5.28,-5.04,6.45,-0.04,0.13,-0.21,1721201028446
-3.91,5.19,15.65,0.15,-0.26,-0.52,1721201028456
-3.79,-0.58,5.31,0.03,0.1,-0.13,1721201028466
-1.63,-2.77,12.81,0.05,-0.11,0.39,1721201028476
3.0,5.71,14.55,0.17,0.2,0.36,1721201028486
4.3,2.9,4.15,0.06,-0.05,-0.12,1721201028496
-0.17,3.84,14.67,-0.08,0.04,-0.38,1721201028506
-2.92,-3.74,9.02,0.04,-0.12,-0.2,1721201028516
-4.53,3.66,13.11,0.06,0.04,0.2,1721201028526
2.3,3.09,10.32,0.0,0.1,0.25,1721201028536
4.38,-1.6,7.75,0.05,-0.17,0.1,1721201028546
2.92,-0.07,9.01,-0.12,0.14,-0.4,1721201028556
-1.41,5.97,14.36,0.16,-0.09,-0.52,1721201028566
-3.31,-2.14,2.93,-0.01,0.01,0.06,1721201028576
-2.37,-3.22,8.8,-0.12,-0.05,0.22,1721201028586
2.71,-3.54,11.35,-0.24,0.16,-0.02,1721201028596
3.17,5.83,13.68,0.11,-0.09,-0.21,1721201028606
1.83,-1.47,5.3,-0.11,0.03,-0.29,1721201028616
-1.63,-3.69,15.7,-0.03,0.08,-0.08,1721201028626
-1.98,-3.03,7.75,-0.06,0.09,-0.12,1721201028636
-2.01,5.64,11.1,-0.06,0.04,-0.16,1721201028646
2.07,2.16,11.51,-0.04,0.13,-0.14,1721201028656
1.58,1.79,9.77,0.05,0.05,-0.12,1721201028666
