AccX,AccY,AccZ,GyrX,GyrY,GyrZ,Time,TimeDiff(ms),Acc_Magnitude,Gyr_Magnitude,Acc_L2Norm,Gyr_L2Norm,Acc_Mean,Gyr_Mean,Acc_Variance,Gyr_Variance,Acc_StdDev,Gyr_StdDev
0.38,0.69,8.51,0.05,0.1,0.09,1721198959146,527000.0,8.5463793503448,0.1435270009440732,8.5463793503448,0.1435270009440732,3.1933333333333334,0.08,21.22423333333333,0.0007,4.606976593530005,0.0264575131106459
0.28,1.08,10.45,0.03,0.08,0.03,1721198959151,5000.0,10.509391038495046,0.0905538513813741,10.509391038495046,0.0905538513813741,3.936666666666666,0.0466666666666666,31.977633333333333,0.0008333333333333,5.654876951210639,0.0288675134594812
0.69,1.64,10.78,0.09,0.08,0.0,1721198959160,9000.0,10.925845505039872,0.1204159457879229,10.925845505039872,0.1204159457879229,4.37,0.0566666666666666,31.0417,0.0024333333333333,5.5715078748934745,0.0493288286231624
0.03,2.82,9.81,0.03,0.08,-0.01,1721198959170,10000.0,10.207320902176043,0.0860232526704262,10.207320902176043,0.0860232526704262,4.22,0.0333333333333333,25.3821,0.0020333333333333,5.03806510477981,0.0450924975282289
-0.75,2.36,10.5,0.08,0.03,0.03,1721198959179,9000.0,10.78805357791664,0.0905538513813741,10.78805357791664,0.0905538513813741,4.036666666666666,0.0466666666666666,33.74903333333333,0.0008333333333333,5.809391821295352,0.0288675134594812
-0.03,-0.31,9.28,-0.04,0.09,0.06,1721198959189,10000.0,9.28522482226467,0.1153256259467079,9.28522482226467,0.1153256259467079,2.98,0.0366666666666666,29.78709999999999,0.0046333333333333,5.457755949105822,0.0680685928555404
0.22,-0.18,12.12,-0.01,0.06,0.04,1721198959198,9000.0,12.123332875080186,0.0728010988928051,12.123332875080186,0.0728010988928051,4.053333333333333,0.03,48.84333333333333,0.0013,6.988800564713041,0.0360555127546398
0.56,0.45,9.87,0.02,0.06,-0.02,1721198959208,10000.0,9.896110346999976,0.066332495807108,9.896110346999976,0.066332495807108,3.6266666666666665,0.02,29.237433333333325,0.0015999999999999,5.407164999640137,0.04
-0.03,1.51,10.37,0.07,0.04,-0.02,1721198959217,9000.0,10.479403608984626,0.0830662386291807,10.479403608984626,0.0830662386291807,3.95,0.03,31.5052,0.0021,5.612949313863434,0.0458257569495584
-0.59,1.79,8.58,0.05,0.09,0.01,1721198959227,10000.0,8.784566010907994,0.103440804327886,8.784566010907994,0.103440804327886,3.26,0.05,22.642900000000004,0.0015999999999999,4.758455631820056,0.04
-0.5,1.09,10.57,-0.01,0.08,-0.0,1721198959237,10000.0,10.63780992497986,0.0806225774829855,10.63780992497986,0.0806225774829855,3.72,0.0233333333333333,35.823899999999995,0.0024333333333333,5.985307009669596,0.0493288286231624
-0.24,-0.46,10.74,0.02,0.05,0.01,1721198959247,10000.0,10.752525284787756,0.0547722557505166,10.752525284787756,0.0547722557505166,3.346666666666667,0.0266666666666666,41.00813333333333,0.0004333333333333,6.403759312570495,0.0208166599946613
0.15,1.26,11.1,0.05,0.1,0.05,1721198959257,10000.0,11.172291618105929,0.1224744871391589,11.172291618105929,0.1224744871391589,4.17,0.0666666666666666,36.3267,0.0008333333333333,6.027163511968129,0.0288675134594812
0.14,1.18,9.0,0.04,0.06,0.03,1721198959267,10000.0,9.078105529239016,0.0781024967590665,9.078105529239016,0.0781024967590665,3.44,0.0433333333333333,23.455600000000004,0.0002333333333333,4.843098181949237,0.0152752523165194
0.07,0.74,8.82,-0.02,0.04,-0.08,1721198959277,10000.0,8.851265446251174,0.0916515138991168,8.851265446251174,0.0916515138991168,3.2100000000000004,-0.02,23.7163,0.0036,4.869938397967679,0.06
0.36,0.15,10.98,0.0,0.11,-0.08,1721198959287,10000.0,10.986924046337991,0.1360147050873544,10.986924046337991,0.1360147050873544,3.83,0.01,38.352900000000005,0.0091,6.192971822961897,0.0953939201416945
-0.49,-0.85,9.52,0.0,0.07,-0.05,1721198959297,10000.0,9.570423188135411,0.0860232526704262,9.570423188135411,0.0860232526704262,2.7266666666666666,0.0066666666666666,34.64443333333333,0.0036333333333333,5.885952202773425,0.060277137733417
-1.7,0.39,7.41,0.01,0.01,0.0,1721198959307,10000.0,7.612502873562676,0.0141421356237309,7.612502873562676,0.0141421356237309,2.033333333333333,0.0066666666666666,22.773433333333337,3.3333333333333335e-05,4.77215185564472,0.0057735026918962
0.21,0.34,8.67,-0.08,0.15,-0.0,1721198959317,10000.0,8.67920503272045,0.1699999999999999,8.67920503272045,0.1699999999999999,3.0733333333333337,0.0233333333333333,23.49623333333333,0.0136333333333333,4.8472913398446895,0.1167618659209132
0.44,0.11,9.79,-0.02,0.05,-0.05,1721198959327,10000.0,9.800499987245548,0.0734846922834953,9.800499987245548,0.0734846922834953,3.4466666666666668,-0.0066666666666666,30.205633333333328,0.0026333333333333,5.495965186692263,0.0513160143944688
-0.78,0.93,9.59,-0.04,0.06,-0.09,1721198959337,10000.0,9.666509194119664,0.1153256259467079,9.666509194119664,0.1153256259467079,3.2466666666666666,-0.0233333333333333,30.90943333333333,0.0058333333333333,5.559625287133417,0.0763762615825973
-1.5,2.17,11.26,-0.01,0.07,-0.01,1721198959347,10000.0,11.564882187035025,0.0714142842854285,11.564882187035025,0.0714142842854285,3.9766666666666666,0.0166666666666666,43.152433333333335,0.0021333333333333,6.569051174510162,0.04618802153517
-0.64,0.96,9.28,-0.03,0.04,0.07,1721198959357,10000.0,9.351449085569572,0.0860232526704262,9.351449085569572,0.0860232526704262,3.2,0.0266666666666666,28.3648,0.0026333333333333,5.325861432669836,0.0513160143944688
0.61,-0.63,10.08,-0.09,0.1,0.02,1721198959367,10000.0,10.118072939053167,0.1360147050873544,10.118072939053167,0.1360147050873544,3.353333333333333,0.01,34.320433333333334,0.0091,5.858364390624173,0.0953939201416945
0.89,-0.11,11.15,0.0,0.05,-0.06,1721198959377,10000.0,11.186004648667012,0.0781024967590665,11.186004648667012,0.0781024967590665,3.9766666666666666,-0.0033333333333333,38.842533333333336,0.0030333333333333,6.232377823377955,0.055075705472861
-0.91,0.34,9.56,-0.01,0.04,-0.09,1721198959387,10000.0,9.60922993792947,0.0989949493661166,9.60922993792947,0.0989949493661166,2.9966666666666666,-0.02,32.69863333333334,0.0042999999999999,5.718271883474355,0.06557438524302
-0.98,-0.53,10.09,-0.09,0.07,-0.01,1721198959397,10000.0,10.151325036663932,0.1144552314225959,10.151325036663932,0.1144552314225959,2.86,-0.0099999999999999,39.255300000000005,0.0064,6.265405014841419,0.08
-0.8,1.45,13.88,0.0,0.09,0.02,1721198959407,10000.0,13.97844411942903,0.0921954445729288,13.97844411942903,0.0921954445729288,4.843333333333334,0.0366666666666666,62.511633333333336,0.0022333333333333,7.906429872789193,0.047258156262526
0.33,1.12,9.87,-0.01,0.07,0.01,1721198959417,10000.0,9.938822867925555,0.0714142842854285,9.938822867925555,0.0714142842854285,3.773333333333333,0.0233333333333333,28.03303333333333,0.0017333333333333,5.2946230586636975,0.0416333199893226
-0.27,2.45,14.55,0.01,0.09,-0.07,1721198959427,10000.0,14.757299888529746,0.1144552314225959,14.757299888529746,0.1144552314225959,5.576666666666667,0.0099999999999999,62.24013333333333,0.0064,7.889241619657325,0.08
-0.4,1.08,8.27,0.1,0.01,-0.09,1721198959437,10000.0,8.34980838103486,0.1349073756323204,8.34980838103486,0.1349073756323204,2.983333333333333,0.0066666666666666,21.50923333333333,0.0090333333333333,4.637804796812101,0.0950438495292217
-0.89,0.99,12.46,-0.03,0.17,-0.02,1721198959447,10000.0,12.530913773544212,0.1737814719698276,12.530913773544212,0.1737814719698276,4.1866666666666665,0.04,52.21963333333333,0.0127,7.226315335863314,0.1126942766958464
-1.3,3.13,11.13,0.15,-0.03,0.05,1721198959457,10000.0,11.634594965017047,0.1609347693943108,11.634594965017047,0.1609347693943108,4.32,0.0566666666666666,39.688300000000005,0.0081333333333333,6.2998650779203205,0.0901849950564578
0.3,1.7,8.15,-0.01,0.11,0.03,1721198959467,10000.0,8.330816286535192,0.1144552314225959,8.330816286535192,0.1144552314225959,3.3833333333333333,0.0433333333333333,17.530833333333337,0.0037333333333333,4.186983799029242,0.0611010092660778
1.28,2.14,11.64,0.04,0.06,-0.02,1721198959477,10000.0,11.90410013398745,0.0748331477354788,11.90410013398745,0.0748331477354788,5.0200000000000005,0.0266666666666666,33.053200000000004,0.0017333333333333,5.749191247471248,0.0416333199893226
0.4,-0.13,9.75,-0.06,0.09,-0.15,1721198959487,10000.0,9.759067578411372,0.1849324200890692,9.759067578411372,0.1849324200890692,3.34,-0.04,30.8863,0.0147,5.557544421774782,0.1212435565298214
-2.49,1.99,13.07,0.05,0.03,-0.12,1721198959497,10000.0,13.453070281537968,0.1334166406412633,13.453070281537968,0.1334166406412633,4.19,-0.0133333333333333,64.1584,0.0086333333333333,8.009893881943755,0.0929157324317756
-1.25,1.52,7.23,0.04,0.06,0.07,1721198959507,10000.0,7.493050113271631,0.1004987562112089,7.493050113271631,0.1004987562112089,2.5,0.0566666666666666,18.697900000000004,0.0002333333333333,4.324106844193377,0.0152752523165194
0.67,1.87,11.0,-0.03,0.11,0.1,1721198959517,10000.0,11.17791572700385,0.151657508881031,11.17791572700385,0.151657508881031,4.513333333333333,0.06,31.91763333333333,0.0061,5.649569305118164,0.0781024967590665
1.2,-0.17,7.49,-0.0,0.01,-0.02,1721198959527,10000.0,7.587423805218738,0.0223606797749978,7.587423805218738,0.0223606797749978,2.84,-0.0033333333333333,16.6861,0.0002333333333333,4.084862298780707,0.0152752523165194
0.62,0.22,12.08,-0.05,0.11,-0.13,1721198959537,10000.0,12.097900644326684,0.1774823934929884,12.097900644326684,0.1774823934929884,4.306666666666667,-0.0233333333333333,45.35853333333333,0.0149333333333333,6.734874411103249,0.1222020185321557
-0.62,0.45,10.55,0.02,0.04,-0.17,1721198959547,10000.0,10.57777859477121,0.1757839583124694,10.57777859477121,0.1757839583124694,3.4600000000000004,-0.0366666666666666,37.9873,0.0134333333333333,6.163383810862341,0.1159022576714247
-1.57,0.29,11.44,0.04,0.09,-0.07,1721198959557,10000.0,11.55087009709658,0.1208304597359457,11.55087009709658,0.1208304597359457,3.3866666666666667,0.02,49.50703333333333,0.0067,7.036123459216256,0.0818535277187245
-1.62,2.01,8.58,0.06,0.09,0.05,1721198959567,10000.0,8.95996093741485,0.1191637528781298,8.95996093741485,0.1191637528781298,2.99,0.0666666666666666,26.7303,0.0004333333333333,5.17013539474548,0.0208166599946613
-0.04,1.24,6.61,-0.05,0.09,0.03,1721198959577,10000.0,6.725421919850085,0.107238052947636,6.725421919850085,0.107238052947636,2.603333333333333,0.0233333333333333,12.449633333333336,0.0049333333333333,3.528403793974456,0.0702376916856849
0.83,-0.85,9.03,-0.17,0.11,-0.08,1721198959587,10000.0,9.107815325312652,0.2177154105707724,9.107815325312652,0.2177154105707724,3.0033333333333334,-0.0466666666666666,27.946133333333325,0.0204333333333333,5.286410250191837,0.1429452109492771
-0.6,-1.18,10.68,0.02,-0.0,-0.11,1721198959597,10000.0,10.7617284857034,0.1118033988749894,10.7617284857034,0.1118033988749894,2.966666666666667,-0.03,44.70573333333333,0.0049,6.686234615486756,0.0699999999999999
-1.37,1.01,10.4,-0.06,0.13,-0.06,1721198959607,10000.0,10.538358505953385,0.1552417469626002,10.538358505953385,0.1552417469626002,3.346666666666667,0.0033333333333333,38.72823333333333,0.0120333333333333,6.223201212666463,0.1096965511460289
-1.4,-0.42,9.91,-0.01,-0.02,0.03,1721198959617,10000.0,10.017210190467203,0.0374165738677394,10.017210190467203,0.0374165738677394,2.6966666666666668,0.0,39.26423333333334,0.0007,6.266117883772483,0.0264575131106459
-0.67,-0.7,13.53,-0.08,0.18,0.01,1721198959627,10000.0,13.564652594150724,0.1972308292331602,13.564652594150724,0.1972308292331602,4.053333333333334,0.0366666666666666,67.35563333333334,0.0174333333333333,8.207047784272573,0.1320353488022557
-0.38,1.11,8.49,0.06,-0.04,0.03,1721198959637,10000.0,8.570682586585505,0.0781024967590665,8.570682586585505,0.0781024967590665,3.0733333333333337,0.0166666666666666,22.560233333333333,0.0026333333333333,4.74976139751602,0.0513160143944688
-0.48,2.93,12.75,-0.06,0.14,-0.0,1721198959647,10000.0,13.091134404626668,0.1523154621172781,13.091134404626668,0.1523154621172781,5.066666666666666,0.0266666666666666,47.182233333333336,0.0105333333333333,6.868932474069995,0.1026320287889376
-0.21,2.46,7.61,0.1,-0.08,0.02,1721198959657,10000.0,8.00048748514739,0.1296148139681572,8.00048748514739,0.1296148139681572,3.286666666666666,0.0133333333333333,15.800633333333336,0.0081333333333333,3.975001048217892,0.0901849950564579
0.4,0.04,8.31,-0.15,0.16,-0.02,1721198959667,10000.0,8.319717543282346,0.2202271554554524,8.319717543282346,0.2202271554554524,2.9166666666666665,-0.0033333333333333,21.84843333333334,0.0242333333333333,4.674230774505399,0.1556705923844749
-0.68,1.35,12.18,0.05,0.02,0.0,1721198959677,10000.0,12.273438800922907,0.053851648071345,12.273438800922907,0.053851648071345,4.283333333333333,0.0233333333333333,47.79823333333333,0.0006333333333333,6.913626641158266,0.0251661147842358
-1.32,0.73,5.62,-0.08,0.07,0.05,1721198959687,10000.0,5.8189088324186695,0.1174734012447073,5.8189088324186695,0.1174734012447073,1.6766666666666667,0.0133333333333333,12.713033333333335,0.0066333333333333,3.565534088090217,0.0814452781524707
-0.83,1.44,12.83,-0.07,0.07,0.06,1721198959697,10000.0,12.937209900129162,0.1157583690279022,12.937209900129162,0.1157583690279022,4.48,0.02,53.58010000000001,0.0061,7.319842894488925,0.0781024967590665
1.12,1.18,8.5,0.02,0.05,0.08,1721198959707,10000.0,8.65429373201534,0.0964365076099295,8.65429373201534,0.0964365076099295,3.6,0.05,18.0084,0.0009,4.243630521145779,0.03
0.62,3.25,14.68,-0.04,0.18,0.01,1721198959717,10000.0,15.048232454344928,0.1846618531261938,15.048232454344928,0.1846618531261938,6.183333333333334,0.0499999999999999,55.87423333333333,0.0133,7.474906911349019,0.1153256259467079
0.21,2.5,10.5,0.1,-0.07,-0.02,1721198959727,10000.0,10.795559272219297,0.1236931687685298,10.795559272219297,0.1236931687685298,4.403333333333333,0.0033333333333333,29.188033333333337,0.0076333333333333,5.402595055464858,0.087368949480541
-1.28,3.61,12.21,0.05,0.09,-0.01,1721198959737,10000.0,12.79666362768046,0.103440804327886,12.79666362768046,0.103440804327886,4.846666666666667,0.0433333333333333,46.64203333333335,0.0025333333333333,6.829497297263785,0.0503322295684716
0.42,-0.65,7.48,0.02,0.05,0.07,1721198959747,10000.0,7.519926861346459,0.0883176086632784,7.519926861346459,0.0883176086632784,2.4166666666666665,0.0466666666666666,19.514233333333337,0.0006333333333333,4.41749174683251,0.0251661147842358
-1.69,0.76,13.32,-0.0,0.09,0.03,1721198959757,10000.0,13.448274982316503,0.0948683298050513,13.448274982316503,0.0948683298050513,4.13,0.04,64.84270000000001,0.0021,8.052496507295114,0.0458257569495584
-0.83,1.57,9.49,0.12,0.02,0.01,1721198959767,10000.0,9.6547345898269,0.122065556157337,9.6547345898269,0.122065556157337,3.41,0.0499999999999999,29.1648,0.0037,5.400444426156055,0.0608276253029822
-0.56,0.7,8.4,0.01,-0.0,0.11,1721198959777,10000.0,8.44769791126553,0.1104536101718726,8.44769791126553,0.1104536101718726,2.846666666666667,0.04,23.526533333333333,0.0037,4.850415789737343,0.0608276253029822
0.06,2.95,11.71,0.02,0.15,0.09,1721198959787,10000.0,12.076017555469187,0.17606816861659,12.076017555469187,0.17606816861659,4.906666666666667,0.0866666666666666,36.80203333333334,0.0042333333333333,6.06646794546327,0.0650640709864771
0.96,1.98,9.53,-0.01,0.05,-0.0,1721198959797,10000.0,9.78074128070056,0.0509901951359278,9.78074128070056,0.0509901951359278,4.156666666666666,0.0133333333333333,21.91463333333333,0.0010333333333333,4.681306797608263,0.0321455025366431
-1.05,2.44,10.27,0.06,-0.01,-0.06,1721198959807,10000.0,10.607968702819592,0.0854400374531753,10.607968702819592,0.0854400374531753,3.8866666666666663,-0.0033333333333333,33.60523333333333,0.0036333333333333,5.797002098786349,0.060277137733417
-0.53,-0.25,10.77,-0.11,0.21,0.0,1721198959817,10000.0,10.785930650620742,0.2370653918225939,10.785930650620742,0.2370653918225939,3.33,0.0333333333333333,41.5348,0.0264333333333333,6.444749801194767,0.1625833119767626
-2.09,0.51,9.78,0.06,-0.17,0.14,1721198959827,10000.0,10.013820449758422,0.2282542442102665,10.013820449758422,0.2282542442102665,2.733333333333333,0.01,38.93163333333332,0.0259,6.239521883392454,0.1609347693943108
-0.39,1.85,10.97,-0.07,0.21,0.14,1721198959837,10000.0,11.13173391704994,0.2619160170741759,11.13173391704994,0.2619160170741759,4.1433333333333335,0.0933333333333333,36.20693333333334,0.0212333333333333,6.017219734506406,0.1457166199626293
1.36,1.46,9.75,0.08,-0.04,0.07,1721198959847,10000.0,9.952070136408809,0.1135781669160054,9.952070136408809,0.1135781669160054,4.19,0.0366666666666666,23.1877,0.0044333333333333,4.815360837985041,0.0665832811847939
0.03,-0.63,6.98,-0.1,-0.01,0.02,1721198959857,10000.0,7.008437771714892,0.1024695076595959,7.008437771714892,0.1024695076595959,2.126666666666667,-0.03,17.775033333333333,0.0039,4.216044749920633,0.0624499799839839
-1.57,1.6,16.04,0.03,0.13,-0.04,1721198959867,10000.0,16.19587910550088,0.1392838827718412,16.19587910550088,0.1392838827718412,5.3566666666666665,0.04,88.11243333333334,0.0072999999999999,9.386822323519995,0.0854400374531753
-1.38,-1.33,6.45,0.02,-0.09,0.1,1721198959877,10000.0,6.728729449160517,0.1360147050873544,6.728729449160517,0.1360147050873544,1.2466666666666668,0.01,20.30663333333333,0.0091,4.506288199098382,0.0953939201416945
-1.74,2.77,12.09,-0.0,0.08,0.23,1721198959887,10000.0,12.524719557738608,0.2435159132377184,12.524719557738608,0.2435159132377184,4.373333333333333,0.1033333333333333,49.74523333333333,0.0136333333333333,7.053030081697747,0.1167618659209133
1.83,3.51,8.85,0.11,0.05,0.21,1721198959897,10000.0,9.694921350892953,0.2422808287917143,9.694921350892953,0.2422808287917143,4.73,0.1233333333333333,13.436399999999995,0.0065333333333333,3.665569532828425,0.0808290376865476
2.48,1.67,10.24,-0.08,0.06,0.04,1721198959907,10000.0,10.667562983174742,0.10770329614269,10.667562983174742,0.10770329614269,4.796666666666667,0.0066666666666666,22.386433333333336,0.0057333333333333,4.731430368644702,0.0757187779440036
-0.65,1.39,12.96,0.06,-0.02,-0.06,1721198959917,10000.0,13.050524893658494,0.0871779788708134,13.050524893658494,0.0871779788708134,4.566666666666667,-0.0066666666666666,53.87643333333335,0.0037333333333333,7.340056766356331,0.0611010092660778
-1.66,1.1,10.08,0.04,0.05,0.03,1721198959927,10000.0,10.27482359945902,0.0707106781186547,10.27482359945902,0.0707106781186547,3.1733333333333333,0.04,37.68093333333333,0.0001,6.138479724926468,0.01
-1.07,-0.52,9.34,-0.09,-0.03,0.22,1721198959937,10000.0,9.415460689737916,0.2395829710142188,9.415460689737916,0.2395829710142188,2.583333333333333,0.0333333333333333,34.31503333333333,0.0270333333333333,5.857903493002708,0.1644181660685136
-0.48,4.13,11.95,0.21,-0.07,0.21,1721198959947,10000.0,12.652659799425573,0.3051229260478471,12.652659799425573,0.3051229260478471,5.2,0.1166666666666666,39.4849,0.0261333333333333,6.28370113866024,0.1616580753730952
3.6,-0.05,5.5,-0.08,0.12,0.1,1721198959957,10000.0,6.573621528503143,0.1754992877478424,6.573621528503143,0.1754992877478424,3.016666666666667,0.0466666666666666,7.955833333333333,0.0121333333333333,2.8206086813546705,0.110151410945722
0.12,-0.98,14.81,-0.02,-0.05,0.0,1721198959967,10000.0,14.84287371097659,0.053851648071345,14.84287371097659,0.053851648071345,4.65,-0.0233333333333333,77.7217,0.0006333333333333,8.815991152445651,0.0251661147842358
-2.0,1.86,8.3,0.08,0.01,-0.01,1721198959977,10000.0,8.73782581652896,0.0812403840463596,8.73782581652896,0.0812403840463596,2.72,0.0266666666666666,27.077200000000005,0.0022333333333333,5.203575693693713,0.047258156262526
-1.16,-0.17,12.65,-0.07,0.06,0.16,1721198959987,10000.0,12.704211899996002,0.1846618531261939,12.704211899996002,0.1846618531261939,3.773333333333333,0.0499999999999999,59.34143333333334,0.0133,7.703339102839322,0.1153256259467079
-1.34,3.93,6.92,0.15,-0.26,0.34,1721198959997,10000.0,8.070123914785944,0.4535416188179427,8.070123914785944,0.4535416188179427,3.17,0.0766666666666666,17.490099999999998,0.0940333333333333,4.182116688950704,0.306648550189518
4.06,-0.38,11.76,-0.17,0.34,0.09,1721198960007,10000.0,12.446911263442026,0.3906404996924922,12.446911263442026,0.3906404996924922,5.1466666666666665,0.0866666666666666,37.73053333333333,0.0650333333333333,6.142518484574005,0.2550163393458022
0.34,-2.45,9.81,0.03,-0.34,-0.07,1721198960017,10000.0,10.11702525449057,0.3484250278036869,10.11702525449057,0.3484250278036869,2.566666666666667,-0.1266666666666666,41.29543333333335,0.0366333333333333,6.426152296151512,0.1913983629327412
-3.42,1.07,9.51,-0.1,0.1,-0.09,1721198960027,10000.0,10.162745691986984,0.1676305461424021,10.162745691986984,0.1676305461424021,2.3866666666666667,-0.03,43.09643333333333,0.0127,6.5647873791413325,0.1126942766958464
-1.53,0.99,9.88,0.06,-0.04,0.22,1721198960037,10000.0,10.046661136915093,0.2315167380558045,10.046661136915093,0.2315167380558045,3.1133333333333333,0.08,35.92843333333334,0.0172,5.994033144163731,0.13114877048604
-0.24,-0.64,7.79,-0.15,-0.02,0.37,1721198960047,10000.0,7.819929667202897,0.3997499218261336,7.819929667202897,0.3997499218261336,2.303333333333333,0.0666666666666666,22.61763333333333,0.0732333333333333,4.755799967758666,0.2706165799305973
1.45,3.31,11.71,0.06,-0.02,0.19,1721198960057,10000.0,12.254905140391744,0.2002498439450078,12.254905140391744,0.2002498439450078,5.489999999999999,0.0766666666666666,29.881200000000003,0.0112333333333333,5.4663699106445405,0.1059874206372309
2.55,-2.44,9.24,-0.18,-0.02,-0.13,1721198960067,10000.0,9.891091951852436,0.2229349680960795,9.891091951852436,0.2229349680960795,3.1166666666666667,-0.1099999999999999,34.34643333333334,0.0066999999999999,5.8605830199164775,0.0818535277187244
-3.31,3.77,17.63,0.19,-0.17,-0.05,1721198960077,10000.0,18.329918166756773,0.2598076211353316,18.329918166756773,0.2598076211353316,6.03,-0.01,113.45159999999996,0.0336,10.651366109565476,0.1833030277982336
-0.62,-2.57,5.05,-0.04,0.06,0.22,1721198960087,10000.0,5.700157892549995,0.2315167380558045,5.700157892549995,0.2315167380558045,0.62,0.08,15.669299999999998,0.0172,3.958446665044257,0.13114877048604
-2.87,4.72,12.64,0.12,-0.2,0.34,1721198960097,10000.0,13.79437929013118,0.4123105625617661,13.79437929013118,0.4123105625617661,4.83,0.0866666666666666,60.1491,0.0737333333333333,7.755585084311821,0.2715388247255507
3.39,0.5,3.55,-0.04,0.08,0.24,1721198960107,10000.0,4.934024726326369,0.2561249694973139,4.934024726326369,0.2561249694973139,2.48,0.0933333333333333,2.9467,0.0197333333333333,1.7165954677791735,0.1404753833713698
2.02,2.11,13.14,-0.02,-0.11,0.03,1721198960117,10000.0,13.460761494061174,0.1157583690279022,13.460761494061174,0.1157583690279022,5.756666666666667,-0.0333333333333333,40.88723333333334,0.0050333333333333,6.394312577074516,0.0709459888459758
0.6,0.58,8.03,0.02,-0.08,-0.09,1721198960127,10000.0,8.073245939521476,0.122065556157337,8.073245939521476,0.122065556157337,3.07,-0.0499999999999999,18.4513,0.0036999999999999,4.295497642881439,0.0608276253029822
-2.42,1.33,9.12,0.01,-0.1,0.08,1721198960137,10000.0,9.528887658063768,0.1284523257866513,9.528887658063768,0.1284523257866513,2.6766666666666663,-0.0033333333333333,34.653033333333326,0.0082333333333333,5.886682710434912,0.0907377172587746
-0.97,0.01,9.65,-0.09,-0.01,0.24,1721198960147,10000.0,9.698633924424614,0.2565151067676132,9.698633924424614,0.2565151067676132,2.896666666666667,0.0466666666666666,34.44573333333334,0.0296333333333333,5.86904875881376,0.1721433511156714
-0.0,0.19,8.86,0.03,-0.2,0.21,1721198960157,10000.0,8.862037011883892,0.291547594742265,8.862037011883892,0.291547594742265,3.016666666666666,0.0133333333333333,25.61743333333333,0.0422333333333333,5.06136674558694,0.2055075018906447
1.03,1.42,11.22,-0.05,0.01,0.08,1721198960167,10000.0,11.356306617910596,0.0948683298050513,11.356306617910596,0.0948683298050513,4.556666666666668,0.0133333333333333,33.338033333333335,0.0042333333333333,5.773909709489172,0.0650640709864771
0.32,1.52,11.34,0.02,-0.14,0.07,1721198960177,10000.0,11.445890092081086,0.157797338380595,11.445890092081086,0.157797338380595,4.3933333333333335,-0.0166666666666666,36.55213333333333,0.0120333333333333,6.045836032620578,0.1096965511460289
-1.43,-1.57,13.24,-0.06,-0.07,0.07,1721198960187,10000.0,13.409228165707376,0.1157583690279022,13.409228165707376,0.1157583690279022,3.4133333333333336,-0.02,72.42743333333334,0.0061,8.510430854741335,0.0781024967590665
-1.48,1.57,10.77,0.18,-0.13,0.27,1721198960197,10000.0,10.983997450837286,0.3495711658589707,10.983997450837286,0.3495711658589707,3.62,0.1066666666666666,40.6675,0.0440333333333333,6.377107494781628,0.2098412098071619
2.44,1.33,8.09,-0.09,0.03,0.23,1721198960207,10000.0,8.553981529089246,0.2487971060924945,8.553981529089246,0.2487971060924945,3.953333333333333,0.0566666666666666,13.142033333333334,0.0261333333333333,3.625194247669128,0.1616580753730952
1.54,3.87,11.77,0.11,-0.19,0.07,1721198960217,10000.0,12.485247294306989,0.2304343724360582,12.485247294306989,0.2304343724360582,5.726666666666667,-0.0033333333333333,28.74863333333333,0.0265333333333333,5.361775203543443,0.1628905563049415
1.67,-2.42,5.81,-0.13,-0.04,-0.06,1721198960227,10000.0,6.511635739197947,0.148660687473185,6.511635739197947,0.148660687473185,1.6866666666666663,-0.0766666666666666,16.933433333333333,0.0022333333333333,4.115025313814404,0.047258156262526
-2.59,2.92,16.6,0.09,-0.12,-0.05,1721198960237,10000.0,17.05269773378981,0.1581138830084189,17.05269773378981,0.1581138830084189,5.6433333333333335,-0.0266666666666666,97.62643333333334,0.0114333333333333,9.88060895559243,0.1069267662156362
-1.15,-2.92,5.99,-0.03,-0.13,0.14,1721198960247,10000.0,6.762322086384233,0.1933907960581371,6.762322086384233,0.1933907960581371,0.64,-0.0066666666666666,22.250100000000003,0.0186333333333333,4.7170011659951925,0.1365039681962884
-2.18,3.72,14.55,0.08,-0.08,0.2,1721198960257,10000.0,15.175417621930542,0.2297825058615211,15.175417621930542,0.2297825058615211,5.363333333333333,0.0666666666666666,71.99863333333334,0.0197333333333333,8.48520084225078,0.1404753833713698
2.72,1.58,7.88,0.04,-0.02,0.13,1721198960267,10000.0,8.484644954268859,0.1374772708486752,8.484644954268859,0.1374772708486752,4.06,0.0499999999999999,11.269199999999998,0.0057,3.356962913110599,0.0754983443527075
0.34,2.95,10.16,0.03,-0.18,0.04,1721198960277,10000.0,10.585069673837769,0.186815416922694,10.585069673837769,0.186815416922694,4.483333333333333,-0.0366666666666666,25.871433333333336,0.0154333333333333,5.086396891054938,0.1242309676905614
0.68,-0.05,8.42,-0.02,-0.01,-0.02,1721198960287,10000.0,8.447561778406833,0.03,8.447561778406833,0.03,3.016666666666667,-0.0166666666666666,22.030233333333328,3.3333333333333335e-05,4.693637537489802,0.0057735026918962
-0.52,-0.51,12.3,-0.02,-0.16,0.01,1721198960297,10000.0,12.321546169211071,0.1615549442140351,12.321546169211071,0.1615549442140351,3.7566666666666673,-0.0566666666666666,54.74143333333334,0.0082333333333333,7.398745389140874,0.0907377172587746
-0.99,1.17,12.23,0.08,-0.11,0.13,1721198960307,10000.0,12.32566022572422,0.1881488772222678,12.32566022572422,0.1881488772222678,4.136666666666667,0.0333333333333333,50.29293333333334,0.0160333333333333,7.091751076661767,0.1266227994214838
1.25,1.07,7.71,0.0,-0.06,0.15,1721198960317,10000.0,7.883622263908895,0.1615549442140351,7.883622263908895,0.1615549442140351,3.3433333333333337,0.03,14.308933333333332,0.0116999999999999,3.7827150742995874,0.1081665382639196
0.24,2.4,10.08,-0.01,-0.16,0.03,1721198960327,10000.0,10.364554983210809,0.1630950643030009,10.364554983210809,0.1630950643030009,4.239999999999999,-0.0466666666666666,26.7456,0.0100333333333333,5.171614834846076,0.1001665280087781
0.84,0.62,8.88,-0.0,-0.1,-0.08,1721198960337,10000.0,8.941163235284323,0.1280624847486569,8.941163235284323,0.1280624847486569,3.4466666666666668,-0.06,22.152933333333337,0.0028,4.706690273784046,0.0529150262212918
-0.34,-0.91,10.17,-0.07,-0.1,0.0,1721198960347,10000.0,10.216290912067842,0.122065556157337,10.216290912067842,0.122065556157337,2.973333333333333,-0.0566666666666666,38.92523333333334,0.0026333333333333,6.239009002504592,0.0513160143944688
-1.33,1.33,10.75,-0.02,-0.09,0.07,1721198960357,10000.0,10.91330838930157,0.1157583690279022,10.91330838930157,0.1157583690279022,3.583333333333333,-0.0133333333333333,40.28973333333333,0.0064333333333333,6.347419423146175,0.0802080627701064
0.03,0.03,7.78,-0.05,-0.13,0.1,1721198960367,10000.0,7.780115680373911,0.1714642819948224,7.780115680373911,0.1714642819948224,2.6133333333333333,-0.0266666666666666,20.020833333333336,0.0136333333333333,4.4744645862196,0.1167618659209133
1.16,0.36,9.7,-0.1,-0.1,0.02,1721198960377,10000.0,9.775745495868843,0.142828568570857,9.775745495868843,0.142828568570857,3.74,-0.06,26.801199999999994,0.0048,5.176987541031946,0.069282032302755
1.04,0.51,11.21,-0.03,-0.13,-0.09,1721198960387,10000.0,11.269685000034386,0.1609347693943108,11.269685000034386,0.1609347693943108,4.253333333333334,-0.0833333333333333,36.36663333333334,0.0025333333333333,6.030475382035262,0.0503322295684716
-1.23,1.42,10.64,-0.03,-0.13,-0.13,1721198960397,10000.0,10.804577733534986,0.1862793601019716,10.804577733534986,0.1862793601019716,3.61,-0.0966666666666666,38.82130000000001,0.0033333333333333,6.23067412083155,0.0577350269189625
-1.43,0.45,11.41,-0.03,-0.11,0.02,1721198960407,10000.0,11.50806239121078,0.1157583690279022,11.50806239121078,0.1157583690279022,3.4766666666666666,-0.04,48.08693333333333,0.0043,6.934474265099938,0.06557438524302
0.21,-1.18,9.58,-0.07,-0.1,0.14,1721198960417,10000.0,9.654682801625333,0.1857417562100671,9.654682801625333,0.1857417562100671,2.87,-0.01,34.25110000000001,0.0171,5.852443933947596,0.1307669683062202
1.02,1.89,11.6,0.04,-0.12,-0.01,1721198960427,10000.0,11.797139483790128,0.1268857754044952,11.797139483790128,0.1268857754044952,4.836666666666667,-0.0299999999999999,34.496233333333336,0.0066999999999999,5.873349413523202,0.0818535277187244
2.05,1.04,10.33,-0.03,-0.09,-0.14,1721198960437,10000.0,10.582674520176834,0.1691153452528776,10.582674520176834,0.1691153452528776,4.473333333333334,-0.0866666666666666,25.98043333333333,0.0030333333333333,5.097100482954337,0.055075705472861
-0.7,1.55,11.78,0.08,-0.22,-0.17,1721198960447,10000.0,11.902138463318265,0.2893095228297886,11.902138463318265,0.2893095228297886,4.21,-0.1033333333333333,44.2443,0.0258333333333333,6.651638895791021,0.1607275126832159
-0.03,1.22,11.2,-0.02,0.09,-0.1,1721198960457,10000.0,11.266290427642986,0.1360147050873544,11.266290427642986,0.1360147050873544,4.13,-0.01,37.8793,0.0091,6.154616153749964,0.0953939201416945
-0.5,0.65,8.67,0.02,-0.2,0.01,1721198960467,10000.0,8.708696802622077,0.2012461179749811,8.708696802622077,0.2012461179749811,2.94,-0.0566666666666666,24.9553,0.0154333333333333,4.995528000121709,0.1242309676905615
-0.27,2.31,9.23,-0.03,-0.05,-0.1,1721198960477,10000.0,9.51850303356573,0.1157583690279022,9.51850303356573,0.1157583690279022,3.7566666666666655,-0.06,24.132133333333336,0.0013,4.912446776641284,0.0360555127546399
1.49,0.68,11.0,0.0,-0.08,-0.16,1721198960487,10000.0,11.121263417435989,0.1788854381999831,11.121263417435989,0.1788854381999831,4.39,-0.08,32.9331,0.0064,5.738736794800751,0.08
0.56,-0.31,10.14,-0.02,-0.1,-0.18,1721198960497,10000.0,10.160182084982534,0.206881608655772,10.160182084982534,0.206881608655772,3.4633333333333334,-0.0999999999999999,33.62263333333334,0.0063999999999999,5.798502680290261,0.08
-1.31,1.19,10.26,0.04,-0.09,-0.16,1721198960507,10000.0,10.411522463117484,0.1878829422805593,10.411522463117484,0.1878829422805593,3.3800000000000003,-0.0699999999999999,37.0633,0.0103,6.087963534713394,0.1014889156509221
-0.62,1.87,9.79,-0.0,-0.05,-0.09,1721198960517,10000.0,9.986260561391337,0.10295630140987,9.986260561391337,0.10295630140987,3.68,-0.0466666666666666,29.5491,0.0020333333333333,5.435908387749006,0.0450924975282289
0.84,1.4,10.74,0.0,-0.12,-0.1,1721198960527,10000.0,10.863388053457356,0.1562049935181331,10.863388053457356,0.1562049935181331,4.326666666666667,-0.0733333333333333,30.92653333333333,0.0041333333333333,5.561162947921355,0.0642910050732863
1.19,-0.05,10.95,-0.01,-0.05,-0.25,1721198960537,10000.0,11.014585784313452,0.2551470164434615,11.014585784313452,0.2551470164434615,4.03,-0.1033333333333333,36.2992,0.0165333333333333,6.024881741578004,0.1285820101465727
-1.29,0.32,11.05,0.01,-0.1,-0.26,1721198960547,10000.0,11.129645097665964,0.2787471972953271,11.129645097665964,0.2787471972953271,3.36,-0.1166666666666666,45.00010000000001,0.0184333333333333,6.708211386055154,0.1357694123627753
-2.02,1.84,7.9,0.06,-0.1,-0.16,1721198960557,10000.0,8.359186563296694,0.1979898987322333,8.359186563296694,0.1979898987322333,2.5733333333333337,-0.0666666666666666,25.004933333333334,0.0129333333333333,5.000493308997957,0.1137248140615465
0.09,0.74,7.83,-0.05,-0.05,-0.14,1721198960567,10000.0,7.865405266100407,0.1568438714135812,7.865405266100407,0.1568438714135812,2.8866666666666667,-0.08,18.43303333333333,0.0027,4.293370859049254,0.0519615242270663
1.57,0.93,12.22,0.05,-0.03,-0.15,1721198960577,10000.0,12.35549270567548,0.1609347693943108,12.35549270567548,0.1609347693943108,4.906666666666667,-0.0433333333333333,40.216033333333336,0.0101333333333333,6.341611256875758,0.1006644591369433
1.53,0.33,8.34,-0.03,-0.02,-0.23,1721198960587,10000.0,8.485599566324113,0.2328089345364563,8.485599566324113,0.2328089345364563,3.4,-0.0933333333333333,18.6627,0.0140333333333333,4.320034722082682,0.1184623709594457
-0.59,1.36,14.3,0.02,-0.03,-0.39,1721198960597,10000.0,14.376637298061048,0.3916631205513228,14.376637298061048,0.3916631205513228,5.023333333333333,-0.1333333333333333,65.49303333333333,0.0500333333333333,8.09277661457014,0.2236813209307682
-1.65,0.74,6.54,0.12,-0.14,-0.31,1721198960607,10000.0,6.785403451527404,0.3606937759374287,6.785403451527404,0.3606937759374287,1.8766666666666667,-0.11,17.738033333333334,0.0469,4.21165446509247,0.2165640782770771
-1.06,1.62,13.17,0.0,0.08,-0.2,1721198960617,10000.0,13.311532593957766,0.2154065922853802,13.311532593957766,0.2154065922853802,4.576666666666667,-0.04,57.17963333333334,0.0208,7.561721585282901,0.1442220510185595
0.35,1.5,9.3,0.16,-0.1,-0.16,1721198960627,10000.0,9.426690829766295,0.2473863375370596,9.426690829766295,0.2473863375370596,3.716666666666667,-0.0333333333333333,23.710833333333337,0.0289333333333333,4.869377099109633,0.1700980109623076
0.41,0.82,7.6,-0.06,0.05,-0.24,1721198960637,10000.0,7.655096341653709,0.2523885892824792,7.655096341653709,0.2523885892824792,2.9433333333333334,-0.0833333333333333,16.305433333333333,0.0214333333333333,4.037998679213916,0.146401275039985
0.42,1.17,11.78,0.05,-0.06,-0.35,1721198960647,10000.0,11.845408393128537,0.3586084215408221,11.845408393128537,0.3586084215408221,4.456666666666666,-0.12,40.364033333333325,0.0426999999999999,6.353269499504434,0.2066397831977182
-0.31,0.39,8.78,0.0,-0.01,-0.36,1721198960657,10000.0,8.794123037574582,0.3601388621073821,8.794123037574582,0.3601388621073821,2.953333333333333,-0.1233333333333333,25.585033333333328,0.0420333333333333,5.058165016419821,0.205020324195757
-0.58,1.9,13.95,0.01,0.08,-0.26,1721198960667,10000.0,14.09073809280408,0.272213151776324,14.09073809280408,0.272213151776324,5.09,-0.0566666666666666,60.41229999999999,0.0322333333333333,7.772534979014246,0.179536440126603
-0.61,-0.21,8.31,0.05,-0.06,-0.23,1721198960677,10000.0,8.335004499098966,0.2428991560298224,8.335004499098966,0.2428991560298224,2.4966666666666666,-0.08,25.38613333333334,0.0199,5.038465374827274,0.1410673597966588
-0.49,1.86,10.27,-0.02,0.06,-0.29,1721198960687,10000.0,10.448569280049782,0.2968164415931166,10.448569280049782,0.2968164415931166,3.88,-0.0833333333333333,32.00469999999999,0.0336333333333333,5.657269659473552,0.1833939293797189
0.24,0.41,9.45,0.03,-0.03,-0.31,1721198960697,10000.0,9.461934263140911,0.3128897569432403,9.461934263140911,0.3128897569432403,3.3666666666666667,-0.1033333333333333,27.762433333333327,0.0329333333333333,5.269006864043102,0.1814754345175493
-0.09,0.47,13.08,0.02,0.03,-0.32,1721198960707,10000.0,13.088750895329929,0.3220248437620924,13.088750895329929,0.3220248437620924,4.486666666666667,-0.09,55.462433333333344,0.0397,7.447310476496421,0.1992485884517127
-0.82,0.35,10.99,0.06,0.05,-0.25,1721198960717,10000.0,11.026105386762817,0.2619160170741759,11.026105386762817,0.2619160170741759,3.5066666666666664,-0.0466666666666666,42.34243333333333,0.0310333333333333,6.507106371754909,0.1761628034896508
-1.35,1.07,7.75,-0.01,-0.01,-0.21,1721198960727,10000.0,7.939137232722457,0.2104756517984918,7.939137232722457,0.2104756517984918,2.49,-0.0766666666666666,22.2148,0.0133333333333333,4.713257896614612,0.1154700538379251
-0.45,1.69,9.73,-0.01,0.02,-0.27,1721198960737,10000.0,9.88592433715735,0.2709243436828813,9.88592433715735,0.2709243436828813,3.6566666666666663,-0.0866666666666666,28.80893333333334,0.0254333333333333,5.367395395658246,0.1594783161854091
0.89,0.03,11.61,0.01,0.06,-0.27,1721198960747,10000.0,11.64410151106559,0.2767670500619609,11.64410151106559,0.2767670500619609,4.176666666666667,-0.0666666666666666,41.62573333333333,0.0316333333333333,6.451800782210602,0.177857620959388
-0.05,1.31,10.35,0.06,0.02,-0.26,1721198960757,10000.0,10.432693803615631,0.267581763205193,10.432693803615631,0.267581763205193,3.87,-0.06,31.9552,0.0304,5.6528930646174445,0.1743559577416269
-0.74,2.53,10.03,-0.05,0.09,-0.3,1721198960767,10000.0,10.37060268258311,0.3171750305430741,10.37060268258311,0.3171750305430741,3.94,-0.0866666666666666,30.4893,0.0390333333333333,5.521711691133466,0.1975685535031659
-0.85,1.52,10.18,0.09,-0.1,-0.31,1721198960777,10000.0,10.327889426209016,0.337934904974316,10.327889426209016,0.337934904974316,3.6166666666666663,-0.1066666666666666,33.71223333333333,0.0400333333333333,5.806223672347917,0.2000833159794522
0.47,0.36,10.19,-0.02,0.15,-0.24,1721198960787,10000.0,10.207183744794644,0.2837252191822221,10.207183744794644,0.2837252191822221,3.673333333333333,-0.0366666666666666,31.853233333333325,0.0382333333333333,5.643866877711887,0.1955334583474995
-0.37,-0.11,10.84,0.0,0.04,-0.23,1721198960797,10000.0,10.846870516420854,0.233452350598575,10.846870516420854,0.233452350598575,3.453333333333333,-0.0633333333333333,40.93903333333333,0.0212333333333333,6.398361769494855,0.1457166199626293
-0.94,1.2,7.97,0.01,0.03,-0.32,1721198960807,10000.0,8.1144623974728,0.3215587038162705,8.1144623974728,0.3215587038162705,2.7433333333333336,-0.0933333333333333,21.633433333333336,0.0386333333333333,4.651175478664865,0.1965536398374076
0.16,0.07,9.43,-0.08,0.06,-0.28,1721198960817,10000.0,9.431617040571568,0.2973213749463701,9.431617040571568,0.2973213749463701,3.22,-0.1,28.9251,0.0292,5.378206020598318,0.1708800749063506
-0.2,1.67,11.44,0.04,0.08,-0.25,1721198960827,10000.0,11.562979719778117,0.265518360947035,11.562979719778117,0.265518360947035,4.303333333333334,-0.0433333333333333,39.07323333333333,0.0324333333333333,6.250858607690094,0.1800925687898679
0.87,-1.18,10.43,-0.09,0.14,-0.29,1721198960837,10000.0,10.532530560126563,0.3343650699460097,10.532530560126563,0.3343650699460097,3.373333333333333,-0.0799999999999999,38.39803333333333,0.0462999999999999,6.19661466716572,0.2151743479135001
-1.2,1.75,10.64,0.06,-0.01,-0.28,1721198960847,10000.0,10.849520726741805,0.2865309756378881,10.849520726741805,0.2865309756378881,3.73,-0.0766666666666666,37.986700000000006,0.0322333333333333,6.163335136109346,0.179536440126603
-0.28,1.48,8.0,-0.04,0.12,-0.31,1721198960857,10000.0,8.140565090950382,0.3348133808556641,8.140565090950382,0.3348133808556641,3.0666666666666664,-0.0766666666666666,19.02773333333333,0.0472333333333333,4.362079015026359,0.2173323108360405
-0.35,1.57,12.27,0.02,0.06,-0.31,1721198960867,10000.0,12.3749868686799,0.3163858403911275,12.3749868686799,0.3163858403911275,4.496666666666667,-0.0766666666666666,46.24013333333333,0.0412333333333333,6.800009803914501,0.2030599254735737
-0.32,-1.62,7.23,-0.04,0.07,-0.24,1721198960877,10000.0,7.416178261072209,0.2531797780234432,7.416178261072209,0.2531797780234432,1.7633333333333334,-0.0699999999999999,22.835833333333333,0.0247,4.778685314323735,0.1571623364550171
-0.85,0.51,14.26,-0.07,0.21,-0.27,1721198960887,10000.0,14.294411495406168,0.3491418050019218,14.294411495406168,0.3491418050019218,4.64,-0.0433333333333333,69.8707,0.0581333333333333,8.358869540793181,0.2411085509336683
-0.87,-0.54,7.24,0.07,-0.07,-0.28,1721198960897,10000.0,7.312051695659707,0.2969848480983499,7.312051695659707,0.2969848480983499,1.9433333333333331,-0.0933333333333333,21.068233333333332,0.0310333333333333,4.59001452430527,0.1761628034896508
-0.82,2.3,12.57,-0.06,0.22,-0.31,1721198960907,10000.0,12.80497169071451,0.3848376280978771,12.80497169071451,0.3848376280978771,4.683333333333334,-0.0499999999999999,49.08323333333334,0.0703,7.005942715533245,0.265141471671257
0.84,-0.06,10.6,0.09,0.01,-0.24,1721198960917,10000.0,10.633400208776118,0.2565151067676132,10.633400208776118,0.2565151067676132,3.793333333333333,-0.0466666666666666,34.95053333333333,0.0296333333333333,5.911897608495375,0.1721433511156714
-1.14,1.27,12.95,-0.01,0.19,-0.27,1721198960927,10000.0,13.0619676925033,0.3303028912982749,13.0619676925033,0.3303028912982749,4.36,-0.03,56.7931,0.0532,7.53611969119387,0.2306512518934159
-0.55,-0.0,9.17,0.07,0.06,-0.25,1721198960937,10000.0,9.186479194990865,0.2664582518894846,9.186479194990865,0.2664582518894846,2.873333333333333,-0.04,29.81163333333333,0.0331,5.460003052502199,0.1819340539866025
-0.09,1.07,13.31,0.06,0.12,-0.33,1721198960947,10000.0,13.353243051783338,0.3562302626111375,13.353243051783338,0.3562302626111375,4.763333333333334,-0.05,55.12053333333333,0.0597,7.424320395385246,0.2443358344574123
0.06,2.84,6.8,0.18,0.1,-0.29,1721198960957,10000.0,7.369477593425466,0.3556683848755748,7.369477593425466,0.3556683848755748,3.233333333333333,-0.0033333333333333,11.472933333333332,0.0632333333333333,3.3871718783276017,0.2514623895005639
0.09,3.05,11.67,0.03,0.27,-0.27,1721198960967,10000.0,12.062317356130205,0.3830143600441111,12.062317356130205,0.3830143600441111,4.9366666666666665,0.01,36.19373333333333,0.0732,6.016122782434991,0.2705549851693737
-0.79,1.7,8.15,0.1,0.04,-0.28,1721198960977,10000.0,8.36281053235095,0.3,8.36281053235095,0.3,3.02,-0.0466666666666666,21.287700000000005,0.0417333333333333,4.6138595557298885,0.2042873792805941
-1.13,2.51,11.15,0.05,0.18,-0.29,1721198960987,10000.0,11.484750759158858,0.3449637662132068,11.484750759158858,0.3449637662132068,4.176666666666667,-0.02,39.78293333333333,0.0588999999999999,6.307371348932401,0.2426932219902319
0.68,0.81,7.34,0.06,0.08,-0.28,1721198960997,10000.0,7.415800698508557,0.2973213749463701,7.415800698508557,0.2973213749463701,2.9433333333333334,-0.0466666666666666,14.502233333333333,0.0409333333333333,3.80817979267436,0.2023198787399136
-0.13,0.1,10.75,-0.02,0.2,-0.35,1721198961007,10000.0,10.75125108998948,0.4036087214122112,10.75125108998948,0.4036087214122112,3.5733333333333337,-0.0566666666666666,38.64163333333333,0.0766333333333333,6.216239484876152,0.2768272626265941
-1.81,0.72,7.78,0.1,0.12,-0.29,1721198961017,10000.0,8.020155858834665,0.3293933818400121,8.020155858834665,0.3293933818400121,2.23,-0.0233333333333333,24.702100000000005,0.0534333333333333,4.970120722879878,0.2311565126344774
-1.41,-0.71,12.31,-0.08,0.26,-0.27,1721198961027,10000.0,12.410813833105388,0.383275357934736,12.410813833105388,0.383275357934736,3.396666666666667,-0.03,59.70813333333334,0.0721,7.727103812770562,0.2685144316419511
-1.84,1.35,11.27,0.15,-0.03,-0.15,1721198961037,10000.0,11.498739061305807,0.2142428528562855,11.498739061305807,0.2142428528562855,3.5933333333333333,-0.01,46.74243333333333,0.0228,6.836843813729645,0.150996688705415
0.6,2.1,10.93,-0.0,0.3,-0.17,1721198961047,10000.0,11.146071056654897,0.3448187929913333,11.146071056654897,0.3448187929913333,4.543333333333333,0.0433333333333333,31.15463333333333,0.0566333333333333,5.581633572112499,0.2379775899813538
1.18,1.73,11.02,0.09,0.09,-0.21,1721198961057,10000.0,11.217205534356586,0.2455605831561735,11.217205534356586,0.2455605831561735,4.6433333333333335,-0.01,30.57203333333333,0.0299999999999999,5.529198254117258,0.1732050807568877
-0.49,2.35,11.07,0.03,0.2,-0.33,1721198961067,10000.0,11.327290055436912,0.3870400496072725,11.327290055436912,0.3870400496072725,4.31,-0.0333333333333333,36.28960000000001,0.0732333333333333,6.024084992760312,0.2706165799305973
-1.63,-0.33,10.12,0.05,0.1,-0.27,1721198961077,10000.0,10.255739856295108,0.2922327839240491,10.255739856295108,0.2922327839240491,2.72,-0.04,41.49249999999999,0.0403,6.441467224165624,0.2007485989988473
-2.29,0.8,9.88,0.1,0.11,-0.17,1721198961087,10000.0,10.17342125344272,0.2258317958127243,10.17342125344272,0.2258317958127243,2.796666666666667,0.0133333333333333,40.01723333333334,0.0252333333333333,6.325917588250209,0.1588500340992514
0.53,1.27,9.27,0.02,0.25,-0.11,1721198961097,10000.0,9.371590046518254,0.273861278752583,9.371590046518254,0.273861278752583,3.69,0.0533333333333333,23.489200000000004,0.0332333333333333,4.846565794456938,0.1823001188516708
0.59,1.33,10.37,0.05,0.1,-0.15,1721198961107,10000.0,10.471575812646346,0.187082869338697,10.471575812646346,0.187082869338697,4.096666666666667,9.251858538542969e-18,29.65293333333333,0.0174999999999999,5.445450700661363,0.1322875655532295
-0.65,1.3,7.27,0.02,0.13,-0.28,1721198961117,10000.0,7.413865388581046,0.3093541659651604,7.413865388581046,0.3093541659651604,2.64,-0.0433333333333333,17.028299999999994,0.0450333333333333,4.126536077632182,0.2122105872319601
-2.03,1.72,13.26,0.03,0.19,-0.3,1721198961127,10000.0,13.524307745685174,0.3563705936241092,13.524307745685174,0.3563705936241092,4.316666666666666,-0.0266666666666666,63.503033333333335,0.0624333333333333,7.968879051242611,0.2498666310921354
-2.02,-0.4,8.39,0.09,0.06,-0.03,1721198961137,10000.0,8.63901035998916,0.1122497216032182,8.63901035998916,0.1122497216032182,1.99,0.04,31.3761,0.0039,5.601437315546788,0.0624499799839839
0.48,3.1,11.51,0.05,0.1,0.03,1721198961152,15000.0,11.92981558952191,0.1157583690279022,11.92981558952191,0.1157583690279022,5.03,0.06,33.2089,0.0013,5.762716373378097,0.0360555127546399
1.97,2.67,9.97,0.09,0.14,-0.05,1721198961156,4000.0,10.507649594462125,0.1737814719698276,10.507649594462125,0.1737814719698276,4.87,0.06,19.630000000000003,0.0097,4.430575583375145,0.098488578017961
1.47,0.6,6.37,-0.08,0.1,-0.22,1721198961166,10000.0,6.564891469019119,0.2545584412271571,6.564891469019119,0.2545584412271571,2.813333333333333,-0.0666666666666666,9.676633333333331,0.0257333333333333,3.110728746344389,0.1604161255402128
-0.73,0.52,10.71,-0.03,0.15,-0.33,1721198961176,10000.0,10.747436903745935,0.3637306695894642,10.747436903745935,0.3637306695894642,3.5,-0.07,39.37870000000001,0.0588,6.27524501513686,0.2424871130596428
-1.76,0.02,8.79,0.0,0.12,-0.2,1721198961186,10000.0,8.964491061962189,0.233238075793812,8.964491061962189,0.233238075793812,2.35,-0.0266666666666666,31.897299999999998,0.0261333333333333,5.647769471216048,0.1616580753730952
-2.47,1.2,9.7,-0.06,0.16,0.0,1721198961196,10000.0,10.081215204527677,0.1708800749063506,10.081215204527677,0.1708800749063506,2.81,0.0333333333333333,38.97129999999999,0.0129333333333333,6.2426997364922165,0.1137248140615465
-0.97,2.2,9.38,0.02,0.12,0.05,1721198961206,10000.0,9.683248421888184,0.131529464379659,9.683248421888184,0.131529464379659,3.536666666666667,0.0633333333333333,28.120633333333338,0.0026333333333333,5.302889149636577,0.0513160143944688
1.43,1.59,8.6,-0.1,0.23,-0.12,1721198961216,10000.0,8.861884675394958,0.2780287754891569,8.861884675394958,0.2780287754891569,3.873333333333333,0.0033333333333333,16.762433333333334,0.0386333333333333,4.094195077586477,0.1965536398374076
-0.17,0.45,11.32,-0.03,0.05,-0.18,1721198961226,10000.0,11.330216238007113,0.189208879284245,11.330216238007113,0.189208879284245,3.8666666666666663,-0.0533333333333333,41.76023333333333,0.0136333333333333,6.46221582224962,0.1167618659209133
-0.76,-0.67,13.16,-0.07,0.2,-0.16,1721198961236,10000.0,13.198943139509314,0.265518360947035,13.198943139509314,0.265518360947035,3.91,-0.01,64.1739,0.0351,8.010861376905732,0.1873499399519519
-2.02,0.56,13.01,0.08,0.02,-0.03,1721198961246,10000.0,13.177788130031534,0.0877496438739212,13.177788130031534,0.0877496438739212,3.85,0.0233333333333333,64.5933,0.0030333333333333,8.036995707352343,0.055075705472861
-0.27,1.48,8.79,0.03,0.17,0.05,1721198961256,10000.0,8.917813633396921,0.1797220075561143,8.917813633396921,0.1797220075561143,3.333333333333333,0.0833333333333333,23.097033333333325,0.0057333333333333,4.80593730018748,0.0757187779440036
0.87,2.27,10.1,0.03,0.1,-0.05,1721198961266,10000.0,10.388445504501624,0.1157583690279022,10.388445504501624,0.1157583690279022,4.413333333333333,0.0266666666666666,24.743633333333328,0.0056333333333333,4.97429727030194,0.0750555349946513
-0.33,1.43,5.65,0.03,0.05,-0.18,1721198961276,10000.0,5.837490899350508,0.189208879284245,5.837490899350508,0.189208879284245,2.25,-0.0333333333333333,9.444400000000002,0.0162333333333333,3.0731742547405285,0.1274100990241093
-1.72,2.44,13.28,-0.07,0.25,-0.13,1721198961286,10000.0,13.611406980911267,0.2903446228191595,13.611406980911267,0.2903446228191595,4.666666666666667,0.0166666666666666,59.96853333333334,0.0417333333333333,7.743935261437388,0.2042873792805941
-1.56,-0.97,6.59,0.03,-0.04,0.09,1721198961296,10000.0,6.841242577193123,0.10295630140987,6.841242577193123,0.10295630140987,1.3533333333333333,0.0266666666666666,20.65403333333333,0.0042333333333333,4.544670871838062,0.0650640709864771
-0.55,2.4,14.88,-0.09,0.27,0.04,1721198961306,10000.0,15.082337352015438,0.2874021572639983,15.082337352015438,0.2874021572639983,5.576666666666667,0.0733333333333333,67.08963333333335,0.0332333333333333,8.190826169156159,0.1823001188516709
1.92,0.97,10.35,0.15,-0.02,0.06,1721198961316,10000.0,10.571177796253355,0.162788205960997,10.571177796253355,0.162788205960997,4.413333333333333,0.0633333333333333,26.65863333333333,0.0072333333333333,5.163199912199152,0.0850490054811538
0.36,3.56,10.27,-0.01,0.16,-0.12,1721198961326,10000.0,10.875481598531625,0.2002498439450078,10.875481598531625,0.2002498439450078,4.73,0.01,25.5787,0.0199,5.05753892718583,0.1410673597966588
-0.99,0.67,10.14,0.01,0.08,-0.16,1721198961336,10000.0,10.210220369805931,0.1791647286716891,10.210220369805931,0.1791647286716891,3.273333333333333,-0.0233333333333333,36.05223333333334,0.0152333333333333,6.004351200032635,0.1234233905438241
-3.02,1.26,10.73,0.09,0.02,0.01,1721198961346,10000.0,11.217883044496409,0.092736184954957,11.217883044496409,0.092736184954957,2.99,0.04,49.5103,0.0018999999999999,7.036355590787037,0.0435889894354067
-0.02,-0.88,8.45,-0.11,0.23,0.13,1721198961356,10000.0,8.495722453093673,0.2861817604250837,8.495722453093673,0.2861817604250837,2.516666666666666,0.0833333333333333,26.58823333333333,0.0305333333333333,5.156377927705972,0.174737898961082
-0.07,5.56,13.57,0.17,0.03,0.14,1721198961366,10000.0,14.66504006131589,0.2222611077089287,14.66504006131589,0.2222611077089287,6.353333333333333,0.1133333333333333,46.98443333333334,0.0054333333333333,6.854519190529219,0.0737111479583199
3.42,1.84,5.51,-0.07,0.21,-0.03,1721198961376,10000.0,6.741075581834103,0.2233830790368867,6.741075581834103,0.2233830790368867,3.59,0.0366666666666666,3.3889,0.0229333333333333,1.8408965207202712,0.1514375558880073
0.59,4.01,14.91,0.01,0.08,-0.14,1721198961386,10000.0,15.451093812413411,0.1615549442140351,15.451093812413411,0.1615549442140351,6.503333333333333,-0.0166666666666666,55.92813333333333,0.0126333333333333,7.4785114383367315,0.1123981020005824
-1.6,1.02,8.73,-0.02,0.08,-0.16,1721198961396,10000.0,8.933828966350319,0.18,8.933828966350319,0.18,2.716666666666667,-0.0333333333333333,28.83623333333333,0.0145333333333333,5.369937926394805,0.1205542754668341
-2.61,1.52,13.51,-0.02,0.11,0.02,1721198961406,10000.0,13.843503891717589,0.1135781669160054,13.843503891717589,0.1135781669160054,4.14,0.0366666666666666,70.1119,0.0044333333333333,8.373284899010663,0.0665832811847939
-0.42,-0.93,6.5,0.01,0.01,0.19,1721198961416,10000.0,6.57961245059312,0.1905255888325765,6.57961245059312,0.1905255888325765,1.7166666666666668,0.0699999999999999,17.225233333333335,0.0108,4.150329304203865,0.1039230484541326
0.78,3.48,12.33,0.05,0.18,0.04,1721198961426,10000.0,12.835408057401214,0.191049731745428,12.835408057401214,0.191049731745428,5.53,0.0899999999999999,36.5025,0.0060999999999999,6.041729884726724,0.0781024967590665
1.5,1.13,5.2,0.05,-0.08,-0.1,1721198961436,10000.0,5.52873403230794,0.1374772708486752,5.52873403230794,0.1374772708486752,2.61,-0.0433333333333333,5.065300000000001,0.0066333333333333,2.2506221362103416,0.0814452781524707
-1.75,3.22,13.32,-0.01,0.07,-0.11,1721198961446,10000.0,13.814966521855926,0.1307669683062202,13.814966521855926,0.1307669683062202,4.930000000000001,-0.0166666666666666,58.96930000000001,0.0081333333333333,7.679147088056069,0.0901849950564579
-0.97,-1.28,5.03,0.05,-0.03,0.03,1721198961456,10000.0,5.280170451794147,0.06557438524302,5.280170451794147,0.06557438524302,0.9266666666666667,0.0166666666666666,12.652033333333335,0.0017333333333333,3.556969684061608,0.0416333199893226
-1.93,2.49,14.91,-0.03,0.19,0.08,1721198961466,10000.0,15.239196173026976,0.2083266665599966,15.239196173026976,0.2083266665599966,5.156666666666667,0.08,76.22973333333334,0.0121,8.730964055207956,0.11
0.95,0.98,7.26,0.08,0.01,0.11,1721198961476,10000.0,7.387184849453816,0.1363818169698585,7.387184849453816,0.1363818169698585,3.063333333333333,0.0666666666666666,13.209233333333335,0.0026333333333333,3.634450898462288,0.0513160143944688
-0.14,2.03,14.59,-0.04,0.18,-0.03,1721198961486,10000.0,14.731211762784486,0.186815416922694,14.731211762784486,0.186815416922694,5.493333333333333,0.0366666666666666,63.23923333333334,0.0154333333333333,7.952309936951234,0.1242309676905614
-0.37,2.61,10.0,0.19,-0.03,0.0,1721198961496,10000.0,10.341614960923655,0.1923538406167134,10.341614960923655,0.1923538406167134,4.08,0.0533333333333333,28.5049,0.0142333333333333,5.338998033339214,0.1193035344544885
0.59,1.33,9.63,-0.03,0.09,0.02,1721198961506,10000.0,9.739296689186546,0.0969535971483265,9.739296689186546,0.0969535971483265,3.85,0.0266666666666666,25.193200000000008,0.0036333333333333,5.019282817295715,0.060277137733417
-0.19,4.48,11.83,0.17,0.02,0.01,1721198961516,10000.0,12.651300328424744,0.1714642819948224,12.651300328424744,0.1714642819948224,5.373333333333334,0.0666666666666666,36.71863333333334,0.0080333333333333,6.059590195164467,0.089628864398325
0.01,-0.89,7.48,-0.12,0.08,-0.01,1721198961526,10000.0,7.532768415396826,0.1445683229480096,7.532768415396826,0.1445683229480096,2.2,-0.0166666666666666,21.111300000000004,0.0100333333333333,4.594703472477849,0.1001665280087781
-2.95,2.73,11.19,0.13,-0.07,-0.0,1721198961536,10000.0,11.889974768686432,0.147648230602334,11.889974768686432,0.147648230602334,3.6566666666666654,0.02,50.628933333333336,0.0103,7.115401136501957,0.1014889156509222
-0.59,0.34,7.42,-0.09,0.2,0.05,1721198961546,10000.0,7.45118111442743,0.2249444375840398,7.45118111442743,0.2249444375840398,2.39,0.0533333333333333,19.1919,0.0210333333333333,4.380856080722123,0.1450287327853806
-0.94,2.05,8.68,0.08,-0.11,0.16,1721198961556,10000.0,8.968193798084428,0.21,8.968193798084428,0.21,3.263333333333333,0.0433333333333333,24.24023333333333,0.0192333333333333,4.923437146276301,0.1386842937514314
1.56,0.16,9.23,-0.19,0.23,0.11,1721198961566,10000.0,9.362270023877755,0.3179622619116929,9.362270023877755,0.3179622619116929,3.65,0.05,23.8423,0.0468,4.882857769790147,0.2163330765278393
0.21,3.94,18.6,0.11,-0.01,-0.04,1721198961576,10000.0,19.013881770958815,0.1174734012447073,19.013881770958815,0.1174734012447073,7.583333333333333,0.02,94.50343333333336,0.0063,9.72128763761948,0.0793725393319377
-0.71,1.82,2.81,0.11,-0.12,-0.01,1721198961586,10000.0,3.422367601529678,0.1630950643030009,3.422367601529678,0.1630950643030009,1.3066666666666666,-0.0066666666666666,3.295233333333333,0.0132333333333333,1.815277756524696,0.1150362261782493
-1.16,2.33,14.19,-0.1,0.14,0.14,1721198961596,10000.0,14.426732131706055,0.2218107301281883,14.426732131706055,0.2218107301281883,5.12,0.06,64.7437,0.0192,8.046346997240425,0.1385640646055101
0.59,0.9,7.53,0.1,-0.09,0.19,1721198961606,10000.0,7.606510369413822,0.2328089345364563,7.606510369413822,0.2328089345364563,3.0066666666666664,0.0666666666666666,15.369433333333332,0.0204333333333333,3.9203868856700015,0.1429452109492771
-0.04,-0.92,7.86,-0.18,0.04,0.03,1721198961616,10000.0,7.913760168213338,0.186815416922694,7.913760168213338,0.186815416922694,2.3000000000000003,-0.0366666666666666,23.378800000000005,0.0154333333333333,4.835162872127474,0.1242309676905614
-1.66,2.55,14.41,0.09,-0.06,-0.0,1721198961626,10000.0,14.727735739074085,0.1081665382639196,14.727735739074085,0.1081665382639196,5.1000000000000005,0.01,69.43809999999999,0.0056999999999999,8.332952657971843,0.0754983443527075
-0.09,0.67,8.79,-0.01,0.13,0.1,1721198961636,10000.0,8.815957123307712,0.1643167672515498,8.815957123307712,0.1643167672515498,3.123333333333333,0.0733333333333333,24.22773333333333,0.0054333333333333,4.922167544215996,0.0737111479583199
-0.85,3.39,9.55,-0.03,-0.02,0.22,1721198961646,10000.0,10.169419845792582,0.2229349680960795,10.169419845792582,0.2229349680960795,4.03,0.0566666666666666,27.3472,0.0200333333333333,5.229455038529349,0.1415391583037476
1.41,1.6,12.36,-0.09,0.15,0.14,1721198961656,10000.0,12.542635289284306,0.2240535650240808,12.542635289284306,0.2240535650240808,5.123333333333333,0.0666666666666666,39.28603333333333,0.0184333333333333,6.267857156423823,0.1357694123627753
0.48,1.85,11.68,0.09,-0.14,0.06,1721198961666,10000.0,11.835341144217178,0.1769180601295413,11.835341144217178,0.1769180601295413,4.67,0.0033333333333333,37.3243,0.0156333333333333,6.109361668783409,0.1250333288900736
0.15,1.42,9.6,-0.02,0.05,-0.03,1721198961676,10000.0,9.70561177875975,0.0616441400296897,9.70561177875975,0.0616441400296897,3.723333333333333,1.1564823173178713e-18,26.30463333333333,0.0019,5.128804279101839,0.0435889894354067
-0.44,1.35,12.31,0.12,-0.05,0.06,1721198961686,10000.0,12.391618134852283,0.1431782106327635,12.391618134852283,0.1431782106327635,4.406666666666667,0.0433333333333333,47.64803333333335,0.0074333333333333,6.902755488450489,0.086216781042517
-0.75,-0.03,7.85,0.03,0.0,0.14,1721198961696,10000.0,7.88580370032123,0.1431782106327635,7.88580370032123,0.1431782106327635,2.3566666666666665,0.0566666666666666,22.76213333333333,0.0054333333333333,4.770967756475968,0.0737111479583199
-0.49,4.66,7.81,0.11,-0.0,0.13,1721198961706,10000.0,9.107787876317715,0.170293863659264,9.107787876317715,0.170293863659264,3.9933333333333336,0.08,17.55583333333333,0.0049,4.189968178081228,0.0699999999999999
1.7,1.13,6.89,-0.15,0.12,0.04,1721198961716,10000.0,7.186028110159325,0.1962141687034858,7.186028110159325,0.1962141687034858,3.24,0.0033333333333333,10.0731,0.0192333333333333,3.17381473939485,0.1386842937514315
-1.35,1.64,10.81,0.02,-0.12,-0.01,1721198961726,10000.0,11.01672365088641,0.122065556157337,11.01672365088641,0.122065556157337,3.7,-0.0366666666666666,40.1491,0.0054333333333333,6.336331746365558,0.0737111479583199
-0.45,2.04,14.27,-0.02,0.21,-0.01,1721198961736,10000.0,14.422101095194138,0.2111871208194287,14.422101095194138,0.2111871208194287,5.286666666666666,0.06,62.075233333333344,0.0169,7.878783747085165,0.13
-1.83,-0.12,10.75,0.07,-0.22,0.23,1721198961746,10000.0,10.905310632898084,0.3258834147360064,10.905310632898084,0.3258834147360064,2.9333333333333336,0.0266666666666666,46.55623333333334,0.0520333333333333,6.8232128307222935,0.2281081614790083
-2.0,5.71,12.03,-0.01,0.11,0.23,1721198961756,10000.0,13.46569715982058,0.2551470164434615,13.46569715982058,0.2551470164434615,5.246666666666666,0.11,49.37123333333333,0.0144,7.026466632193832,0.12
2.57,3.66,8.34,0.08,-0.05,0.17,1721198961766,10000.0,9.463408476864982,0.1944222209522358,9.463408476864982,0.1944222209522358,4.8566666666666665,0.0666666666666666,9.397233333333332,0.0122333333333333,3.065490716562901,0.1106044001535804
2.8,1.76,14.43,-0.1,0.08,-0.0,1721198961776,10000.0,14.804137935050456,0.1280624847486569,14.804137935050456,0.1280624847486569,6.329999999999999,-0.0066666666666666,49.477900000000005,0.0081333333333333,7.034052885783559,0.0901849950564579
0.02,1.12,8.86,0.11,-0.18,0.01,1721198961786,10000.0,8.930531899052822,0.2111871208194287,8.930531899052822,0.2111871208194287,3.333333333333333,-0.0199999999999999,23.210533333333327,0.0217,4.817731139585659,0.1473091986265623
-1.78,0.95,10.52,-0.14,0.08,0.08,1721198961796,10000.0,10.71173655389265,0.18,10.71173655389265,0.18,3.23,0.0066666666666666,41.72129999999999,0.0161333333333333,6.459202737180495,0.1270170592217177
-1.6,1.31,12.35,0.12,-0.18,0.2,1721198961806,10000.0,12.521924772174604,0.2946183972531247,12.521924772174604,0.2946183972531247,4.02,0.0466666666666666,54.1587,0.0401333333333333,7.359259473615535,0.2003330560175562
0.24,1.24,8.92,-0.05,0.01,0.21,1721198961816,10000.0,9.008973304433752,0.216101827849743,9.008973304433752,0.216101827849743,3.466666666666667,0.0566666666666666,22.554133333333333,0.0185333333333333,4.749119216584622,0.1361371857110809
1.7,2.51,10.94,0.09,-0.08,0.22,1721198961826,10000.0,11.35225528254188,0.250798724079689,11.35225528254188,0.250798724079689,5.05,0.0766666666666666,26.1831,0.0226333333333333,5.116942446422472,0.1504437879519568
1.98,0.58,8.18,-0.1,0.03,0.0,1721198961836,10000.0,8.436183971441116,0.1044030650891055,8.436183971441116,0.1044030650891055,3.58,-0.0233333333333333,16.36,0.0046333333333333,4.044749683231337,0.0680685928555404
-0.97,3.06,11.1,0.05,-0.13,-0.04,1721198961846,10000.0,11.554847467621544,0.1449137674618943,11.554847467621544,0.1449137674618943,4.3966666666666665,-0.04,37.76123333333332,0.0081,6.145016951427662,0.09
-0.17,0.57,8.1,-0.1,0.02,0.01,1721198961856,10000.0,8.1218101430654,0.1024695076595959,8.1218101430654,0.1024695076595959,2.833333333333333,-0.0233333333333333,20.94023333333333,0.0044333333333333,4.576049970589628,0.0665832811847939
-0.04,2.07,11.02,0.04,-0.08,0.14,1721198961866,10000.0,11.212800720605,0.1661324772583615,11.212800720605,0.1661324772583615,4.35,0.0333333333333333,34.4797,0.0121333333333333,5.871941757204341,0.110151410945722
1.26,1.04,9.43,-0.07,0.05,0.02,1721198961876,10000.0,9.570480656685952,0.0883176086632784,9.570480656685952,0.0883176086632784,3.91,-1.1564823173178713e-18,22.8649,0.0039,4.781725629937377,0.0624499799839839
-0.09,2.09,11.0,0.03,-0.12,-0.09,1721198961886,10000.0,11.19715142346481,0.1529705854077835,11.19715142346481,0.1529705854077835,4.333333333333333,-0.06,34.521433333333334,0.0062999999999999,5.875494305446422,0.0793725393319377
-0.62,2.0,10.45,0.02,-0.04,-0.08,1721198961896,10000.0,10.657715515062314,0.0916515138991168,10.657715515062314,0.0916515138991168,3.943333333333333,-0.0333333333333333,33.46863333333332,0.0025333333333333,5.785208149525246,0.0503322295684716
-1.75,2.94,10.25,0.11,-0.06,0.01,1721198961906,10000.0,10.805952063562009,0.1256980508997653,10.805952063562009,0.1256980508997653,3.813333333333333,0.02,36.57203333333334,0.0072999999999999,6.0474815694910005,0.0854400374531753
-0.44,2.58,7.97,-0.06,0.02,0.03,1721198961916,10000.0,8.388736496040389,0.0699999999999999,8.388736496040389,0.0699999999999999,3.37,-0.0033333333333333,18.150099999999995,0.0024333333333333,4.260293417125163,0.0493288286231624
0.31,2.88,13.6,0.08,-0.07,0.11,1721198961926,10000.0,13.905053038374216,0.1529705854077835,13.905053038374216,0.1529705854077835,5.596666666666667,0.04,49.691233333333344,0.0093,7.049200900338516,0.0964365076099295
1.51,1.17,5.02,0.03,-0.08,0.03,1721198961936,10000.0,5.371163747271162,0.0905538513813741,5.371163747271162,0.0905538513813741,2.5666666666666664,-0.0066666666666666,4.543033333333332,0.0040333333333333,2.1314392633460923,0.0635085296108588
0.32,2.15,13.54,-0.09,0.04,-0.12,1721198961946,10000.0,13.713369389030545,0.1552417469626002,13.713369389030545,0.1552417469626002,5.336666666666666,-0.0566666666666666,51.30823333333333,0.0072333333333333,7.162976569369282,0.0850490054811538
-1.52,1.3,7.29,0.17,-0.25,-0.11,1721198961956,10000.0,7.559398124189518,0.3217141588429082,7.559398124189518,0.3217141588429082,2.356666666666667,-0.0633333333333333,20.241433333333333,0.0457333333333333,4.499048047457744,0.2138535324312725
-1.87,0.58,7.43,-0.16,0.02,0.01,1721198961966,10000.0,7.683631953705227,0.1615549442140351,7.683631953705227,0.1615549442140351,2.0466666666666664,-0.0433333333333333,23.23583333333333,0.0102333333333333,4.820356141752737,0.1011599393699567
-1.42,2.58,13.46,0.09,-0.13,0.16,1721198961976,10000.0,13.77840339081419,0.2249444375840398,13.77840339081419,0.2249444375840398,4.873333333333334,0.04,59.298133333333325,0.0229,7.700528120417022,0.1513274595042155
1.45,2.23,9.8,-0.08,0.07,0.06,1721198961986,10000.0,10.154575323468729,0.122065556157337,10.154575323468729,0.122065556157337,4.493333333333333,0.0166666666666666,21.27263333333334,0.0070333333333333,4.612226504990116,0.0838649708360608
0.33,4.8,12.12,0.04,-0.17,-0.04,1721198961996,10000.0,13.04006518388616,0.1791647286716891,13.04006518388616,0.1791647286716891,5.75,-0.0566666666666666,35.427899999999994,0.0112333333333333,5.952134071070644,0.1059874206372309
0.24,-0.34,7.09,-0.12,-0.09,-0.02,1721198962006,10000.0,7.102203883302703,0.1513274595042155,7.102203883302703,0.1513274595042155,2.33,-0.0766666666666666,17.0773,0.0026333333333333,4.132468995648969,0.0513160143944688
-0.8,3.7,12.67,0.06,-0.07,0.05,1721198962016,10000.0,13.223422401178905,0.1048808848170151,13.223422401178905,0.1048808848170151,5.19,0.0133333333333333,47.0253,0.0052333333333333,6.857499544294553,0.0723417813807023
1.48,-0.73,7.36,-0.18,-0.01,0.05,1721198962026,10000.0,7.542738229582146,0.187082869338697,7.542738229582146,0.187082869338697,2.703333333333333,-0.0466666666666666,17.484433333333335,0.0142333333333333,4.181439146195163,0.1193035344544885
-1.53,2.34,12.39,0.01,-0.23,-0.01,1721198962036,10000.0,12.70151959412731,0.2304343724360582,12.70151959412731,0.2304343724360582,4.4,-0.0766666666666666,51.624300000000005,0.0177333333333333,7.185005219204785,0.1331665623695878
-0.04,-0.54,7.56,-0.09,-0.01,-0.01,1721198962046,10000.0,7.579366728164035,0.0911043357914429,7.579366728164035,0.0911043357914429,2.3266666666666667,-0.0366666666666666,20.603333333333328,0.0021333333333333,4.539089482851526,0.04618802153517
-1.56,2.26,14.57,0.08,-0.17,0.1,1721198962056,10000.0,14.826533647484837,0.2128379665379276,14.826533647484837,0.2128379665379276,5.09,0.0033333333333333,71.05090000000001,0.0226333333333333,8.42916959136545,0.1504437879519568
-0.02,1.3,10.34,-0.05,0.0,0.16,1721198962066,10000.0,10.42142024869931,0.1676305461424021,10.42142024869931,0.1676305461424021,3.873333333333333,0.0366666666666666,31.79893333333333,0.0120333333333333,5.639054294235278,0.1096965511460289
0.75,3.07,15.96,0.05,-0.12,0.16,1721198962076,10000.0,16.26988014706931,0.206155281280883,16.26988014706931,0.206155281280883,6.593333333333334,0.03,67.14643333333333,0.0199,8.194292729292341,0.1410673597966588
0.95,0.56,8.04,0.03,-0.21,0.03,1721198962086,10000.0,8.115275719283972,0.2142428528562854,8.115275719283972,0.2142428528562854,3.183333333333333,-0.0499999999999999,17.728433333333328,0.0192,4.210514616211815,0.1385640646055101
-0.72,3.51,14.36,0.13,-0.09,-0.02,1721198962096,10000.0,14.800273646118844,0.1593737745050922,14.800273646118844,0.1593737745050922,5.716666666666666,0.0066666666666666,60.50363333333334,0.0126333333333333,7.778408149058093,0.1123981020005824
0.67,0.18,4.15,0.03,-0.21,0.05,1721198962106,10000.0,4.207588382910097,0.2179449471770336,4.207588382910097,0.2179449471770336,1.6666666666666667,-0.0433333333333333,4.685233333333334,0.0209333333333333,2.164539981920716,0.1446835627614047
-1.04,3.08,12.51,-0.02,-0.07,0.12,1721198962116,10000.0,12.92548258286707,0.140356688476182,12.92548258286707,0.140356688476182,4.8500000000000005,0.0099999999999999,48.2503,0.0097,6.946243589163858,0.098488578017961
1.23,2.49,7.2,0.1,-0.1,0.02,1721198962126,10000.0,7.717059025302321,0.142828568570857,7.717059025302321,0.142828568570857,3.64,0.0066666666666666,9.9021,0.0101333333333333,3.146760238721724,0.1006644591369433
0.23,3.59,12.01,-0.06,-0.05,-0.04,1721198962136,10000.0,12.537188680082949,0.0877496438739212,12.537188680082949,0.0877496438739212,5.276666666666666,-0.0499999999999999,36.82573333333333,9.999999999999996e-05,6.068420991768232,0.0099999999999999
-0.16,3.13,10.43,0.09,-0.16,0.05,1721198962146,10000.0,10.890702456682948,0.1902629759044045,10.890702456682948,0.1902629759044045,4.466666666666666,-0.0066666666666666,29.377033333333333,0.0180333333333333,5.420058425269356,0.1342882471898912
0.07,4.72,7.91,0.01,-0.12,0.08,1721198962156,10000.0,9.211481965460282,0.1445683229480096,9.211481965460282,0.1445683229480096,4.233333333333333,-0.01,15.544033333333331,0.0103,3.9425922098707256,0.1014889156509221
1.78,0.98,7.18,-0.1,-0.12,0.07,1721198962166,10000.0,7.461983650477934,0.1711724276862369,7.461983650477934,0.1711724276862369,3.313333333333333,-0.0499999999999999,11.373333333333331,0.0109,3.37243729865113,0.1044030650891055
1.32,1.95,12.17,-0.05,-0.12,-0.05,1721198962176,10000.0,12.395717002255257,0.1392838827718412,12.395717002255257,0.1392838827718412,5.1466666666666665,-0.0733333333333333,37.09463333333333,0.0016333333333333,6.090536374846909,0.0404145188432738
0.42,-0.57,5.36,-0.08,-0.18,-0.1,1721198962186,10000.0,5.406560829214817,0.2209072203437452,5.406560829214817,0.2209072203437452,1.7366666666666666,-0.12,10.091433333333336,0.0027999999999999,3.1767016437388853,0.0529150262212918
-2.25,2.05,11.72,-0.1,-0.12,-0.07,1721198962196,10000.0,12.108814970920978,0.1711724276862369,12.108814970920978,0.1711724276862369,3.84,-0.0966666666666666,51.19330000000001,0.0006333333333333,7.154949335949207,0.0251661147842358
-0.95,1.48,7.32,-0.02,-0.15,0.03,1721198962206,10000.0,7.52829994088971,0.1542724862054151,7.52829994088971,0.1542724862054151,2.6166666666666667,-0.0466666666666666,18.06723333333333,0.0086333333333333,4.250556826267982,0.0929157324317756
0.64,2.05,12.42,-0.13,0.02,0.03,1721198962216,10000.0,12.604304820179491,0.1349073756323204,12.604304820179491,0.1349073756323204,5.036666666666666,-0.0266666666666666,41.38223333333333,0.0080333333333333,6.432902403529322,0.089628864398325
0.64,2.96,11.16,-0.01,-0.17,-0.05,1721198962226,10000.0,11.563598055968566,0.1774823934929885,11.563598055968566,0.1774823934929885,4.92,-0.0766666666666666,30.5488,0.0069333333333333,5.527096887155136,0.0832666399786453
-0.34,0.16,12.4,-0.1,-0.13,-0.15,1721198962236,10000.0,12.405692241870264,0.2222611077089286,12.405692241870264,0.2222611077089286,4.073333333333333,-0.1266666666666666,52.06253333333334,0.0006333333333333,7.215437154693633,0.0251661147842358
-1.82,0.85,14.32,0.1,-0.23,-0.04,1721198962246,10000.0,14.46019709409246,0.2539685019840059,14.46019709409246,0.2539685019840059,4.45,-0.0566666666666666,74.84490000000002,0.0274333333333333,8.651294700794791,0.1656301099840646
-1.16,2.95,8.44,0.05,-0.12,0.08,1721198962256,10000.0,9.015636416803863,0.1526433752247374,9.015636416803863,0.1526433752247374,3.41,0.0033333333333333,23.1987,0.0116333333333333,4.816502880721655,0.1078579312490895
0.32,1.49,4.95,-0.11,-0.2,0.13,1721198962266,10000.0,5.179285665031424,0.2626785107312739,5.179285665031424,0.2626785107312739,2.2533333333333334,-0.06,5.796233333333333,0.0291,2.407536777150732,0.1705872210923198
0.65,0.51,7.34,-0.11,-0.2,-0.03,1721198962276,10000.0,7.386352279711549,0.2302172886644267,7.386352279711549,0.2302172886644267,2.833333333333333,-0.1133333333333333,15.23743333333333,0.0072333333333333,3.9035155095546026,0.0850490054811538
1.09,-0.75,9.86,-0.14,-0.12,-0.24,1721198962286,10000.0,9.948376752013363,0.3026549190084311,9.948376752013363,0.3026549190084311,3.4,-0.1666666666666666,32.14509999999999,0.0041333333333333,5.669664893095534,0.0642910050732863
-1.05,1.85,12.69,0.04,-0.26,-0.14,1721198962296,10000.0,12.867054830068922,0.2979932885150268,12.867054830068922,0.2979932885150268,4.496666666666667,-0.12,52.450533333333325,0.0228,7.242274044340861,0.150996688705415
-0.88,1.58,11.5,-0.09,-0.05,0.01,1721198962306,10000.0,11.641340129040127,0.103440804327886,11.641340129040127,0.103440804327886,4.066666666666666,-0.0433333333333333,42.95373333333333,0.0025333333333333,6.553909774579853,0.0503322295684716
-0.82,7.21,15.19,0.13,-0.18,0.06,1721198962316,10000.0,16.834268620881634,0.2299999999999999,16.834268620881634,0.2299999999999999,7.1933333333333325,0.0033333333333333,64.08023333333333,0.0264333333333333,8.005013012689819,0.1625833119767626
2.83,0.5,5.64,-0.07,-0.2,0.01,1721198962326,10000.0,6.329968404344528,0.2121320343559642,6.329968404344528,0.2121320343559642,2.99,-0.0866666666666666,6.624099999999999,0.0112333333333333,2.5737326978534503,0.1059874206372309
1.0,2.97,14.85,0.03,-0.18,-0.17,1721198962336,10000.0,15.17706822808674,0.2493992782667985,15.17706822808674,0.2493992782667985,6.273333333333333,-0.1066666666666666,56.13963333333332,0.0140333333333333,7.492638609550932,0.1184623709594457
1.79,1.4,6.71,0.12,-0.18,-0.22,1721198962346,10000.0,7.084363062407234,0.3085449724108302,7.084363062407234,0.3085449724108302,3.3000000000000003,-0.0933333333333333,8.7591,0.0345333333333333,2.959577672574248,0.1858314648635513
-0.62,4.11,10.15,-0.01,-0.09,-0.19,1721198962356,10000.0,10.968090079863495,0.2104756517984918,10.968090079863495,0.2104756517984918,4.546666666666667,-0.0966666666666666,29.141233333333336,0.0081333333333333,5.398262066010998,0.0901849950564579
-0.38,2.31,7.55,0.03,-0.17,-0.08,1721198962366,10000.0,7.904618902894686,0.1902629759044045,7.904618902894686,0.1902629759044045,3.16,-0.0733333333333333,16.2631,0.0100333333333333,4.032753401833541,0.1001665280087781
1.24,3.03,9.68,-0.04,-0.03,-0.13,1721198962376,10000.0,10.218654510257208,0.1392838827718412,10.218654510257208,0.1392838827718412,4.65,-0.0666666666666666,19.7767,0.0030333333333333,4.447100178768182,0.055075705472861
1.59,2.36,7.99,-0.08,-0.17,-0.26,1721198962386,10000.0,8.481615412172378,0.3207802986469088,8.481615412172378,0.3207802986469088,3.98,-0.17,12.2083,0.0081,3.4940377788455583,0.09
-0.01,1.66,13.05,-0.07,-0.11,-0.35,1721198962396,10000.0,13.155158683953609,0.3734969879396619,13.155158683953609,0.3734969879396619,4.9,-0.1766666666666666,50.5141,0.0229333333333333,7.107327205075055,0.1514375558880072
-0.78,1.32,8.5,-0.02,-0.17,-0.26,1721198962406,10000.0,8.637175464235979,0.3112876483254676,8.637175464235979,0.3112876483254676,3.013333333333333,-0.15,23.68013333333333,0.0147,4.866223724134899,0.1212435565298214
-0.17,0.32,10.05,-0.11,-0.09,-0.16,1721198962416,10000.0,10.056530216729824,0.2140093455903269,10.056530216729824,0.2140093455903269,3.4000000000000004,-0.12,33.2269,0.0013,5.764277925291251,0.0360555127546399
1.23,2.41,11.5,0.05,-0.07,-0.21,1721198962426,10000.0,11.814017098345508,0.2269361143582043,11.814017098345508,0.2269361143582043,5.046666666666667,-0.0766666666666666,31.58223333333333,0.0169333333333333,5.619807232755704,0.1301281419729542
1.49,1.4,8.35,-0.12,-0.04,-0.38,1721198962436,10000.0,8.596662142948272,0.4004996878900157,8.596662142948272,0.4004996878900157,3.746666666666666,-0.18,15.89503333333333,0.0316,3.986857576253926,0.1777638883463118
-0.68,-0.03,10.5,-0.09,-0.18,-0.44,1721198962446,10000.0,10.522038775826667,0.4838388161361178,10.522038775826667,0.4838388161361178,3.263333333333333,-0.2366666666666666,39.38263333333333,0.0330333333333333,6.275558408088744,0.1817507450695411
-1.09,-0.04,10.91,-0.07,-0.04,-0.41,1721198962456,10000.0,10.964387807807602,0.4178516483155235,10.964387807807602,0.4178516483155235,3.26,-0.1733333333333333,44.1675,0.0422333333333333,6.645863375062716,0.2055075018906446
-0.42,1.59,12.8,-0.01,-0.01,-0.29,1721198962466,10000.0,12.905212125339126,0.2903446228191595,12.905212125339126,0.2903446228191595,4.656666666666667,-0.1033333333333333,50.74543333333335,0.0261333333333333,7.123582900011296,0.1616580753730952
0.88,-0.23,7.99,-0.07,-0.11,-0.28,1721198962476,10000.0,8.041604317547588,0.30886890422961,8.041604317547588,0.30886890422961,2.8800000000000003,-0.1533333333333333,19.8921,0.0124333333333333,4.460056053459418,0.1115048578911848
0.21,0.04,12.16,-0.04,-0.06,-0.41,1721198962486,10000.0,12.161878966672871,0.4162931659299729,12.161878966672871,0.4162931659299729,4.136666666666667,-0.17,48.28763333333333,0.0432999999999999,6.948930373326051,0.208086520466848
0.1,-0.32,9.33,-0.02,-0.06,-0.49,1721198962496,10000.0,9.336021636650164,0.494064773081425,9.336021636650164,0.494064773081425,3.036666666666666,-0.1899999999999999,29.74863333333333,0.0679,5.454230773751083,0.2605762844159077
-1.21,1.0,17.64,-0.02,0.04,-0.51,1721198962506,10000.0,17.709706378141902,0.5119570294468082,17.709706378141902,0.5119570294468082,5.81,-0.1633333333333333,106.1827,0.0910333333333333,10.304499017419529,0.30171730698343
-1.08,-0.76,7.72,0.12,-0.21,-0.34,1721198962516,10000.0,7.832138916030537,0.4172529209005013,7.832138916030537,0.4172529209005013,1.96,-0.1433333333333333,24.9088,0.0562333333333333,4.990871667354311,0.2371356854910988
-0.79,3.39,11.08,-0.05,0.06,-0.3,1721198962526,10000.0,11.613896848172882,0.31,11.613896848172882,0.31,4.56,-0.0966666666666666,36.2509,0.0340333333333333,6.020872029864113,0.1844812546936228
2.91,2.43,9.51,0.03,-0.01,-0.4,1721198962536,10000.0,10.237826917857127,0.4012480529547776,10.237826917857127,0.4012480529547776,4.95,-0.1266666666666666,15.6528,0.0564333333333333,3.956361965240289,0.2375570107012911
1.61,-0.23,10.45,-0.15,-0.0,-0.61,1721198962546,10000.0,10.575797842243391,0.6281719509815764,10.575797842243391,0.6281719509815764,3.943333333333333,-0.2533333333333333,32.59893333333333,0.1010333333333333,5.709547559424768,0.3178574103797697
-1.06,0.65,9.11,0.05,-0.13,-0.55,1721198962556,10000.0,9.194465726729312,0.5673623181001713,9.194465726729312,0.5673623181001713,2.9,-0.21,29.654099999999996,0.0948,5.445557822666103,0.3078960863668131
-0.61,-0.84,8.63,-0.18,0.13,-0.44,1721198962566,10000.0,8.69221490760554,0.4928488612140643,8.69221490760554,0.4928488612140643,2.393333333333333,-0.1633333333333333,29.18523333333334,0.0814333333333333,5.402335914521915,0.2853652630109932
0.49,0.49,15.9,-0.0,0.06,-0.45,1721198962576,10000.0,15.915093465009877,0.4539823785126466,15.915093465009877,0.4539823785126466,5.626666666666666,-0.13,79.15603333333333,0.0777,8.896967648212133,0.2787471972953271
0.07,1.06,6.65,0.01,-0.06,-0.54,1721198962586,10000.0,6.734315109942511,0.543415126767741,6.734315109942511,0.543415126767741,2.5933333333333333,-0.1966666666666666,12.587433333333331,0.0896333333333333,3.547877299644582,0.2993882651897588
-1.72,4.93,12.54,-0.05,0.1,-0.61,1721198962596,10000.0,13.583626172712496,0.6201612693485461,13.583626172712496,0.6201612693485461,5.25,-0.1866666666666666,50.91369999999999,0.1400333333333333,7.135383661724154,0.3742102795666273
-0.6,0.84,9.19,-0.06,0.01,-0.56,1721198962606,10000.0,9.247794331623082,0.5632938842203065,9.247794331623082,0.5632938842203065,3.143333333333333,-0.2033333333333333,27.94003333333333,0.0966333333333333,5.285833267644121,0.310859024854247
-1.12,-0.98,11.44,-0.08,0.01,-0.48,1721198962616,10000.0,11.536394584097753,0.4867237409455183,11.536394584097753,0.4867237409455183,3.1133333333333333,-0.1833333333333333,52.00493333333333,0.0680333333333333,7.211444607936286,0.2608320021265284
-0.45,1.64,10.94,0.06,0.05,-0.47,1721198962626,10000.0,11.071391059844286,0.4764451699828638,11.071391059844286,0.4764451699828638,4.043333333333333,-0.12,36.76503333333333,0.0918999999999999,6.0634176281477865,0.3031501278244823
1.17,0.33,9.36,-0.08,0.09,-0.56,1721198962636,10000.0,9.438612186121432,0.5728001396647875,9.438612186121432,0.5728001396647875,3.62,-0.1833333333333333,24.8871,0.1136333333333333,4.988697224727113,0.3370954365359064
-0.43,3.09,9.29,0.13,-0.03,-0.55,1721198962646,10000.0,9.799852039699374,0.5659505278732408,9.799852039699374,0.5659505278732408,3.983333333333333,-0.15,24.21813333333333,0.1264,4.9211922674625646,0.3555277766926236
1.28,2.63,12.35,-0.04,0.31,-0.56,1721198962656,10000.0,12.69164291965386,0.6413267497929586,12.69164291965386,0.6413267497929586,5.419999999999999,-0.0966666666666666,36.4743,0.1916333333333333,6.039395665130742,0.4377594468807422
0.05,2.77,7.06,0.1,-0.04,-0.55,1721198962666,10000.0,7.584128163474032,0.5604462507680822,7.584128163474032,0.5604462507680822,3.293333333333333,-0.1633333333333333,12.490433333333332,0.1170333333333333,3.5341807159981693,0.3421013495052794
0.78,0.73,13.86,-0.15,0.37,-0.7,1721198962676,10000.0,13.901111466354047,0.8058535847162311,13.901111466354047,0.8058535847162311,5.123333333333333,-0.16,57.247633333333326,0.2863,7.566216579859007,0.5350700888668698
0.57,3.35,13.94,0.25,-0.0,-0.61,1721198962686,10000.0,14.348205462705083,0.6592419889539803,14.348205462705083,0.6592419889539803,5.953333333333333,-0.12,49.77223333333333,0.1956999999999999,7.054943892996834,0.4423799272118933
0.9,-0.74,6.35,-0.05,0.2,-0.62,1721198962696,10000.0,6.456012701350579,0.6533758489567854,6.456012701350579,0.6533758489567854,2.17,-0.1566666666666666,13.776699999999998,0.1766333333333333,3.7116977247615406,0.4202776859807494
-0.51,3.4,13.68,0.13,0.13,-0.62,1721198962706,10000.0,14.105406764783496,0.6466838485689897,14.105406764783496,0.6466838485689897,5.523333333333333,-0.12,53.72043333333333,0.1875,7.329422442002735,0.4330127018922193
2.21,-0.13,8.13,0.0,0.16,-0.7,1721198962716,10000.0,8.426025160180808,0.7180529228406496,8.426025160180808,0.7180529228406496,3.4033333333333338,-0.1799999999999999,18.12493333333333,0.2092,4.257338761871474,0.4573838650411708
-1.44,2.16,13.35,0.13,0.03,-0.68,1721198962726,10000.0,13.600062499856389,0.6929646455628167,13.600062499856389,0.6929646455628167,4.69,-0.1733333333333333,59.4867,0.1950333333333333,7.712762151136258,0.4416257842714048
-1.14,0.17,7.54,0.06,0.23,-0.66,1721198962736,10000.0,7.627588085364861,0.7014983962918233,7.627588085364861,0.7014983962918233,2.19,-0.1233333333333333,21.8959,0.2232333333333333,4.679305504025143,0.47247574893674
-1.54,1.06,12.15,0.08,0.13,-0.65,1721198962746,10000.0,12.292993939638952,0.667682559304944,12.292993939638952,0.667682559304944,3.89,-0.1466666666666666,52.8607,0.1906333333333333,7.270536431378361,0.4366157731156003
0.47,-1.76,6.47,0.08,0.18,-0.61,1721198962756,10000.0,6.7215623183899735,0.6410148204214938,6.7215623183899735,0.6410148204214938,1.7266666666666666,-0.1166666666666666,18.11763333333333,0.1850333333333333,4.256481332430971,0.4301550108197431
-0.08,2.08,14.97,0.14,0.34,-0.66,1721198962766,10000.0,15.114023289647267,0.7555130707009642,15.114023289647267,0.7555130707009642,5.656666666666666,-0.06,66.22003333333333,0.2800000000000001,8.13756925213748,0.5291502622129182
0.95,-0.7,7.65,0.22,0.13,-0.7,1721198962776,10000.0,7.74047802141444,0.7451845409024531,7.74047802141444,0.7451845409024531,2.6333333333333333,-0.1166666666666666,19.555833333333336,0.2572333333333333,4.422197794460729,0.5071817557181383
-1.33,-2.52,8.96,0.14,0.26,-0.71,1721198962786,10000.0,9.402175280221062,0.7689603370785778,9.402175280221062,0.7689603370785778,1.7033333333333338,-0.1033333333333333,39.84843333333333,0.2796333333333333,6.312561550855036,0.5288036812781596
-1.68,0.37,12.13,0.32,0.25,-0.76,1721198962796,10000.0,12.251375432987109,0.8616843969807043,12.251375432987109,0.8616843969807043,3.606666666666667,-0.0633333333333333,55.536033333333336,0.3652333333333333,7.452250219452735,0.6043453758682474
-2.92,13.55,16.46,0.53,0.25,-0.66,1721198962806,10000.0,21.51884058215033,0.8826097665446492,21.51884058215033,0.8826097665446492,9.03,0.04,109.21890000000002,0.3871,10.450784659536335,0.6221736092120913
-0.75,12.03,3.81,0.2,0.19,-0.43,1721198962816,10000.0,12.6411826978333,0.5108815909777921,12.6411826978333,0.5108815909777921,5.03,-0.0133333333333333,41.94839999999999,0.1302333333333333,6.476758448483315,0.3608785575970583
1.75,-6.23,8.06,-0.42,0.31,-0.39,1721198962826,10000.0,10.336295274420136,0.6516133823057964,10.336295274420136,0.6516133823057964,1.1933333333333334,-0.1666666666666666,51.28343333333334,0.1706333333333333,7.16124523622347,0.4130778780488412
3.01,-9.0,19.4,-0.01,0.36,-0.76,1721198962836,10000.0,21.59676133127372,0.841011296000238,21.59676133127372,0.841011296000238,4.47,-0.1366666666666667,203.2387,0.3256333333333333,14.256181115572293,0.5706429122781894
0.21,4.92,8.2,0.46,0.13,-0.89,1721198962846,10000.0,9.565066649009824,1.010247494428964,9.565066649009824,1.010247494428964,4.4433333333333325,-0.0999999999999999,16.13043333333333,0.4953000000000001,4.016271073188826,0.7037755323965164
-1.43,3.11,1.88,0.08,0.36,-0.78,1721198962856,10000.0,3.90530408547145,0.8627861844049197,3.90530408547145,0.8627861844049197,1.1866666666666663,-0.1133333333333333,5.513433333333332,0.3529333333333334,2.348070129560301,0.5940819247657122
-3.15,-1.35,15.45,-0.01,0.31,-0.65,1721198962866,10000.0,15.825533166373887,0.7202083032012336,15.825533166373887,0.7202083032012336,3.65,-0.1166666666666666,105.23999999999998,0.2389333333333333,10.258654882585729,0.488808074128623
-2.85,-2.63,13.38,0.2,0.26,-0.43,1721198962876,10000.0,13.930678375441737,0.5408326913195983,13.930678375441737,0.5408326913195983,2.6333333333333333,0.01,86.63023333333335,0.1461,9.307536372925616,0.3822302970723278
-2.03,-0.27,9.71,0.03,0.32,-0.36,1721198962886,10000.0,9.92360317626617,0.4825971404805461,9.92360317626617,0.4825971404805461,2.47,-0.0033333333333333,40.0876,0.1164333333333333,6.331476920908739,0.3412232895529455
0.81,3.18,14.86,0.18,0.31,-0.48,1721198962896,10000.0,15.218018924945518,0.5990826320300063,15.218018924945518,0.5990826320300063,6.283333333333334,0.0033333333333333,56.57363333333332,0.1794333333333333,7.521544610871714,0.4235957192103496
0.56,5.94,7.07,0.2,0.23,-0.57,1721198962906,10000.0,9.2510593987932,0.6463745044476924,9.2510593987932,0.6463745044476924,4.523333333333333,-0.0466666666666666,12.100233333333335,0.2056333333333333,3.4785389653320453,0.4534681172181053
-1.93,5.49,7.68,0.03,0.32,-0.54,1721198962916,10000.0,9.635735571299165,0.628410693734599,9.635735571299165,0.628410693734599,3.7466666666666666,-0.0633333333333333,25.367433333333334,0.1914333333333333,5.036609309181459,0.4375309512861157
-0.41,-1.85,8.87,-0.25,0.35,-0.48,1721198962926,10000.0,9.07014332852574,0.6445153217728807,9.07014332852574,0.6445153217728807,2.203333333333333,-0.1266666666666666,33.85173333333333,0.1836333333333333,5.818224242269571,0.4285246006162695
0.23,-3.12,12.88,-0.12,0.24,-0.47,1721198962936,10000.0,13.254497349956354,0.5412023651093923,13.254497349956354,0.5412023651093923,3.33,-0.1166666666666666,71.20750000000001,0.1260333333333333,8.438453649810493,0.3550117368951811
0.61,1.67,4.98,0.03,0.34,-0.62,1721198962946,10000.0,5.287854007061845,0.7077428911688198,5.287854007061845,0.7077428911688198,2.42,-0.0833333333333333,5.196100000000001,0.2400333333333333,2.279495558232128,0.4899319680663156
-0.19,1.91,8.69,-0.22,0.52,-0.8,1721198962956,10000.0,8.899455039495395,0.979183333191492,8.899455039495395,0.979183333191492,3.47,-0.1666666666666666,21.538799999999995,0.4377333333333333,4.640991273424245,0.6616141876753652
-5.51,-1.44,4.81,-0.09,0.13,-0.67,1721198962966,10000.0,7.454515410139012,0.6884039511798288,7.454515410139012,0.6884039511798288,-0.7133333333333333,-0.21,27.021633333333327,0.1708,5.198233674367989,0.4132795663954365
-6.44,-3.12,11.52,-0.35,0.56,-0.4,1721198962976,10000.0,13.56165181679577,0.7720751258783047,13.56165181679577,0.7720751258783047,0.653333333333333,-0.0633333333333333,91.31893333333336,0.2920333333333334,9.556094041674838,0.5404010856145031
-3.77,-1.3,14.56,-0.04,0.24,-0.13,1721198962986,10000.0,15.096241254034066,0.2758622844826744,15.096241254034066,0.2758622844826744,3.1633333333333336,0.0233333333333333,98.93823333333332,0.0372333333333333,9.946769994995025,0.192959408512084
0.64,-1.14,10.53,-0.12,0.37,-0.09,1721198962996,10000.0,10.61084822245611,0.3992492955535425,10.61084822245611,0.3992492955535425,3.3433333333333333,0.0533333333333333,39.528233333333326,0.0754333333333333,6.287148267166389,0.2746512940681935
2.39,6.17,14.93,0.12,0.34,-0.33,1721198963006,10000.0,16.33052050609533,0.4887739763939975,16.33052050609533,0.4887739763939975,7.830000000000001,0.0433333333333333,41.3796,0.1166333333333333,6.4326977233506,0.3415162270424838
2.62,1.52,0.15,-0.09,0.18,-0.55,1721198963016,10000.0,3.032705063140826,0.5856620185738529,3.032705063140826,0.5856620185738529,1.4300000000000004,-0.1533333333333333,1.5313000000000003,0.1362333333333333,1.2374570699624292,0.3690979996333404
-2.31,-0.67,11.51,-0.29,0.35,-0.51,1721198963026,10000.0,11.758618116088302,0.6831544481301428,11.758618116088302,0.6831544481301428,2.8433333333333333,-0.15,57.005733333333325,0.1996,7.550214124998928,0.4467661580737735
-2.21,-5.48,6.73,-0.1,0.2,-0.31,1721198963036,10000.0,8.955858417817915,0.3822302970723278,8.955858417817915,0.3822302970723278,-0.32,-0.0699999999999999,39.950100000000006,0.0657,6.32060914785909,0.2563201123595259
-2.02,2.12,9.65,-0.03,0.41,-0.25,1721198963046,10000.0,10.084507920568065,0.4811444689487763,10.084507920568065,0.4811444689487763,3.25,0.0433333333333333,35.004900000000006,0.1129333333333333,5.916493894191053,0.3360555509634282
0.51,-2.02,-0.3,-0.17,0.24,-0.28,1721198963056,10000.0,2.1048752932181043,0.406078810084939,2.1048752932181043,0.406078810084939,-0.6033333333333334,-0.07,1.6692333333333331,0.0751,1.2919881320404354,0.2740437921208944
-4.87,1.33,12.7,-0.24,0.34,-0.55,1721198963066,10000.0,13.666594308751542,0.6897100840208152,13.666594308751542,0.6897100840208152,3.053333333333333,-0.15,79.40363333333333,0.2041,8.910871637125817,0.4517742799230607
-6.07,4.43,10.84,0.12,0.13,-0.28,1721198963076,10000.0,13.189973464719328,0.3312099032335839,13.189973464719328,0.3312099032335839,3.0666666666666664,-0.01,72.88103333333333,0.0547,8.537038908973845,0.23388031127053
-4.33,-2.03,14.97,-0.7,0.39,0.19,1721198963086,10000.0,15.71530146067838,0.8235289915965314,15.71530146067838,0.8235289915965314,2.870000000000001,-0.0399999999999999,111.13,0.3366999999999999,10.541821474489122,0.5802585630561602
-1.19,1.87,29.2,0.15,0.22,0.41,1721198963096,10000.0,29.28400587351396,0.4888762624632126,29.28400587351396,0.4888762624632126,9.96,0.26,279.9741,0.0180999999999999,16.73242660225946,0.1345362404707371
9.26,-12.26,-2.8,-0.2,0.23,0.14,1721198963106,10000.0,15.617144425278266,0.3354101966249684,15.617144425278266,0.3354101966249684,-1.9333333333333331,0.0566666666666666,116.34093333333333,0.0514333333333333,10.786145434460511,0.226789182575654
0.11,1.82,14.3,0.08,0.6,-0.31,1721198963116,10000.0,14.415772611969157,0.6800735254367721,14.415772611969157,0.6800735254367721,5.41,0.1233333333333333,60.005100000000006,0.2084333333333333,7.746295889003983,0.4565449959569519
2.35,8.89,-7.21,0.33,0.18,-0.52,1721198963126,10000.0,11.684977535280074,0.6416385275215323,11.684977535280074,0.6416385275215323,1.3433333333333335,-0.0033333333333333,65.56253333333333,0.2058333333333333,8.097069428708966,0.4536885862938734
-4.05,4.28,1.11,-0.75,0.88,-0.5,1721198963136,10000.0,5.996082054141688,1.2597221915962264,5.996082054141688,1.2597221915962264,0.4466666666666668,-0.1233333333333333,17.677233333333337,0.7706333333333335,4.204430203170619,0.8778572397225721
-6.66,-1.03,24.6,-0.31,-0.12,0.06,1721198963146,10000.0,25.50640115735656,0.3377869150810907,25.50640115735656,0.3377869150810907,5.636666666666667,-0.1233333333333333,277.63023333333336,0.0342333333333333,16.662239745404378,0.1850225211517056
1.51,-1.1,23.03,-0.1,0.5,0.45,1721198963161,15000.0,23.10564866001385,0.6800735254367721,23.10564866001385,0.6800735254367721,7.813333333333333,0.2833333333333334,175.36323333333337,0.1108333333333333,13.242478368241096,0.3329164059239697
-3.65,2.18,20.05,0.12,0.37,0.5,1721198963165,4000.0,20.49578981156862,0.6334824385884742,20.49578981156862,0.6334824385884742,6.193333333333334,0.33,152.50263333333334,0.0373,12.349195655318338,0.1931320791582796
4.37,5.88,9.3,0.16,0.31,0.23,1721198963175,10000.0,11.83897377309368,0.4178516483155235,11.83897377309368,0.4178516483155235,6.516666666666667,0.2333333333333333,6.380233333333335,0.0056333333333333,2.5259123764163585,0.0750555349946513
1.51,2.2,4.3,-0.04,0.16,0.05,1721198963185,10000.0,5.060642251730505,0.1723368793961408,5.060642251730505,0.1723368793961408,2.67,0.0566666666666666,2.1117,0.0100333333333333,1.453168950948237,0.1001665280087781
-0.49,0.27,19.01,-0.1,0.43,0.02,1721198963195,10000.0,19.01823072738366,0.441927595879687,19.01823072738366,0.441927595879687,6.263333333333335,0.1166666666666666,122.00253333333332,0.0772333333333333,11.045475695203594,0.2779088579612628
-3.23,-1.86,6.99,0.13,-0.13,0.39,1721198963205,10000.0,7.921653867722321,0.431161222746202,7.921653867722321,0.431161222746202,0.6333333333333334,0.13,30.77463333333333,0.0676,5.54748892142502,0.26
0.02,1.59,11.07,-0.13,0.59,0.41,1721198963215,10000.0,11.183621953553333,0.7301369734508724,11.183621953553333,0.7301369734508724,4.226666666666667,0.29,35.73963333333334,0.1404,5.9782634044790415,0.3746998799039039
3.24,3.31,14.23,0.24,0.04,0.25,1721198963225,10000.0,14.964845471971971,0.3488552708502481,14.964845471971971,0.3488552708502481,6.926666666666667,0.1766666666666666,40.00523333333334,0.0140333333333333,6.324969038132387,0.1184623709594457
-0.57,3.97,-0.65,0.14,-0.0,0.01,1721198963235,10000.0,4.063040733244008,0.140356688476182,4.063040733244008,0.140356688476182,0.9166666666666669,0.05,6.993733333333333,0.0061,2.644566757208699,0.0781024967590665
-1.3,5.26,13.62,-0.09,0.61,-0.01,1721198963245,10000.0,14.65817178231992,0.6166846844214634,14.65817178231992,0.6166846844214634,5.859999999999999,0.17,55.9216,0.1467999999999999,7.478074618509767,0.3831448812133603
-2.76,1.43,11.11,0.06,0.09,0.28,1721198963255,10000.0,11.536663295771442,0.3001666203960727,11.536663295771442,0.3001666203960727,3.26,0.1433333333333333,50.60589999999999,0.0142333333333333,7.113782397571631,0.1193035344544885
0.13,-4.05,13.57,-0.2,0.53,0.47,1721198963265,10000.0,14.162072588431398,0.7360706487831179,14.162072588431398,0.7360706487831179,3.216666666666667,0.2666666666666666,84.76173333333332,0.1642333333333333,9.206613564896342,0.4052571200279315
1.28,2.37,13.95,0.2,0.01,0.5,1721198963275,10000.0,14.207666944294548,0.5386093203798092,14.207666944294548,0.5386093203798092,5.866666666666667,0.2366666666666666,49.30223333333333,0.0610333333333333,7.021554908518008,0.2470492528491704
2.72,6.54,12.02,0.11,0.36,0.11,1721198963285,10000.0,13.951716740243832,0.3921734310225515,13.951716740243832,0.3921734310225515,7.093333333333334,0.1933333333333333,21.852133333333327,0.0208333333333333,4.674626544798347,0.1443375672974064
-0.5,5.54,10.2,0.21,0.03,0.0,1721198963295,10000.0,11.618158201711664,0.2121320343559642,11.618158201711664,0.2121320343559642,5.079999999999999,0.08,28.7812,0.0129,5.364811273474585,0.1135781669160054
-3.94,-4.42,5.71,-0.22,0.21,0.17,1721198963305,10000.0,8.225819108149656,0.3484250278036869,8.225819108149656,0.3484250278036869,-0.8833333333333332,0.0533333333333333,32.66163333333333,0.0564333333333333,5.715035724589421,0.2375570107012911
-5.34,-4.91,16.29,0.05,0.12,0.52,1721198963315,10000.0,17.832212425832076,0.5360037313302959,17.832212425832076,0.5360037313302959,2.013333333333333,0.2299999999999999,152.91363333333334,0.0643,12.365825218453208,0.2535744466621193
0.67,2.46,6.92,0.27,0.2,0.76,1721198963325,10000.0,7.374747453303063,0.8309632964216891,7.374747453303063,0.8309632964216891,3.35,0.41,10.3597,0.0931,3.2186487848163865,0.3051229260478471
4.03,9.91,9.49,0.13,0.27,0.56,1721198963335,10000.0,14.300667816574162,0.6351377803280167,14.300667816574162,0.6351377803280167,7.81,0.32,10.7604,0.0481,3.280304863880795,0.2193171219946131
3.78,9.94,4.38,0.14,0.09,0.26,1721198963345,10000.0,11.501147768809858,0.3087069808086626,11.501147768809858,0.3087069808086626,6.033333333333332,0.1633333333333333,11.536533333333333,0.0076333333333333,3.3965472664653635,0.087368949480541
2.14,-10.25,1.58,-0.56,0.16,0.02,1721198963355,10000.0,10.589546732509376,0.5827520913733387,10.589546732509376,0.5827520913733387,-2.1766666666666663,-0.1266666666666666,48.96243333333334,0.1457333333333333,6.997316152163866,0.3817503547258775
-6.41,-7.41,20.31,-0.12,-0.04,0.14,1721198963365,10000.0,22.549773834786016,0.188679622641132,22.549773834786016,0.188679622641132,2.1633333333333327,-0.0066666666666666,247.22613333333328,0.0177333333333333,15.723426259353694,0.1331665623695878
-3.79,-1.72,8.04,0.32,0.22,0.65,1721198963375,10000.0,9.053402675237637,0.7571657678474377,9.053402675237637,0.7571657678474377,0.8433333333333332,0.3966666666666666,39.91523333333333,0.0506333333333333,6.317850372819329,0.2250185177565022
0.69,4.79,7.52,0.08,0.15,0.9,1721198963385,10000.0,8.942628249010466,0.9159148432032316,8.942628249010466,0.9159148432032316,4.333333333333333,0.3766666666666666,11.81863333333333,0.2066333333333334,3.4378239241318527,0.4545693933090232
2.15,9.55,9.66,0.2,0.03,0.45,1721198963395,10000.0,13.752839706766018,0.4933558553417604,13.752839706766018,0.4933558553417604,7.12,0.2266666666666666,18.528700000000004,0.0446333333333333,4.3044976478097885,0.211266025033211
2.54,-0.03,5.06,-0.27,0.17,0.09,1721198963405,10000.0,5.661810664442957,0.3315116890850155,5.661810664442957,0.3315116890850155,2.523333333333333,-0.0033333333333333,6.4772333333333325,0.0549333333333333,2.5450409295988408,0.2343786110832926
-2.58,-11.22,14.26,-0.36,0.15,0.12,1721198963415,10000.0,18.3273675141849,0.4080441152620633,18.3273675141849,0.4080441152620633,0.153333333333333,-0.03,167.91093333333333,0.0818999999999999,12.958045120053152,0.2861817604250837
-5.21,-5.93,12.84,0.18,0.07,0.55,1721198963425,10000.0,15.07231236406677,0.5829236656715869,15.07231236406677,0.5829236656715869,0.5666666666666664,0.2666666666666666,113.10563333333332,0.0632333333333333,10.63511322616423,0.251462389500564
-0.42,0.17,-0.56,0.25,0.1,0.93,1721198963435,10000.0,0.7203471385380802,0.9681941953967708,0.7203471385380802,0.9681941953967708,-0.27,0.4266666666666667,0.1501,0.1956333333333333,0.3874274125562104,0.4423045707805125
5.16,7.76,12.37,0.08,0.37,0.59,1721198963445,10000.0,15.487417473549293,0.7009992867328754,15.487417473549293,0.7009992867328754,8.43,0.3466666666666667,13.332699999999996,0.0654333333333333,3.6513969929329786,0.2557994005726622
3.0,12.95,11.48,0.19,-0.23,0.14,1721198963455,10000.0,17.563965953052858,0.3295451410656816,17.563965953052858,0.3295451410656816,9.143333333333333,0.0333333333333333,28.84563333333333,0.0526333333333333,5.3708130979706725,0.2294195574342635
-1.41,-2.84,4.14,-0.48,0.08,0.1,1721198963465,10000.0,5.214719551423642,0.4967896939349688,5.214719551423642,0.4967896939349688,-0.0366666666666667,-0.0999999999999999,13.594633333333334,0.1084,3.68709009021116,0.3292415526630866
-4.32,-14.92,20.31,-0.44,0.11,0.51,1721198963475,10000.0,25.568826723179924,0.6824954212300621,25.568826723179924,0.6824954212300621,0.3566666666666656,0.06,326.6916333333333,0.2275,18.074612951134892,0.4769696007084728
-2.17,-1.99,13.47,0.31,-0.04,0.85,1721198963485,10000.0,13.788034667783512,0.905648938607008,13.788034667783512,0.905648938607008,3.103333333333333,0.3733333333333333,80.60893333333334,0.2010333333333333,8.978247787476871,0.4483674088661366
4.62,13.28,5.0,0.17,0.16,0.82,1721198963495,10000.0,14.92323021332848,0.8525843066817498,14.92323021332848,0.8525843066817498,7.633333333333333,0.3833333333333333,23.94973333333333,0.1430333333333333,4.893846476273375,0.3781974792794543
6.31,11.3,7.52,-0.09,0.14,0.25,1721198963505,10000.0,14.968516960607689,0.3003331483536241,14.968516960607689,0.3003331483536241,8.376666666666667,0.1,6.7754333333333365,0.0300999999999999,2.6029662566643728,0.1734935157289747
3.15,-17.72,8.8,-0.67,-0.01,-0.24,1721198963515,10000.0,20.03399361086052,0.7117583859709699,20.03399361086052,0.7117583859709699,-1.923333333333333,-0.3066666666666667,195.1316333333333,0.1122333333333333,13.968952478025448,0.3350124375800596
-13.02,-5.5,36.74,0.12,-0.28,-0.03,1721198963525,10000.0,39.36493363388284,0.3061045573002793,39.36493363388284,0.3061045573002793,6.073333333333334,-0.0633333333333333,719.4709333333334,0.0408333333333333,26.82295534301419,0.202072594216369
-8.85,0.68,-13.05,0.69,-0.35,1.35,1721198963535,10000.0,15.7825029700615,1.5559884318336046,15.7825029700615,1.5559884318336046,-7.073333333333333,0.5633333333333334,49.49563333333333,0.7345333333333334,7.035313307403824,0.8570492012325391
13.15,-0.32,2.61,-0.61,1.14,1.36,1721198963545,10000.0,13.410331837803268,1.8765127231116767,13.410331837803268,1.8765127231116767,5.1466666666666665,0.63,50.18623333333333,1.1653,7.084224257696345,1.079490620616965
9.87,34.14,28.92,0.85,-0.34,0.47,1721198963555,10000.0,45.81836858728168,1.0290772565750348,45.81836858728168,1.0290772565750348,24.31,0.3266666666666666,163.1973,0.3694333333333334,12.77486986235085,0.6078102774166734
5.73,5.25,4.17,-0.06,0.11,-0.87,1721198963565,10000.0,8.81954080437298,0.8789766777338294,8.81954080437298,0.8789766777338294,5.05,-0.2733333333333333,0.6384000000000003,0.2742333333333333,0.7989993742175273,0.5236729259120938
-11.64,-1.57,26.04,0.09,-0.7,0.05,1721198963575,10000.0,28.56634558357089,0.7075309180523491,28.56634558357089,0.7075309180523491,4.276666666666666,-0.1866666666666666,380.5832333333333,0.1980333333333332,19.508542573276284,0.445009363197375
-2.69,-4.98,-10.32,0.2,0.2,1.29,1721198963585,10000.0,11.77025488254184,1.3206437824031128,11.77025488254184,1.3206437824031128,-5.996666666666667,0.5633333333333334,15.329433333333334,0.3960333333333333,3.915282024750367,0.6293117934166921
13.5,3.29,5.79,-0.42,0.66,1.18,1721198963595,10000.0,15.053179066230497,1.4157683426323673,15.053179066230497,1.4157683426323673,7.526666666666666,0.4733333333333333,28.32303333333333,0.6661333333333332,5.321938869747879,0.8161699169494875
11.81,7.38,31.22,0.24,-0.17,-0.18,1721198963605,10000.0,34.18521464025054,0.3448187929913333,34.18521464025054,0.3448187929913333,16.80333333333333,-0.0366666666666666,160.78643333333332,0.0574333333333333,12.6801590421151,0.2396525262402492
1.54,-4.74,-9.04,0.29,-0.63,-0.53,1721198963615,10000.0,10.32282906959134,0.8728688332160796,10.32282906959134,0.8728688332160796,-4.079999999999999,-0.29,28.3108,0.2548,5.320789415115017,0.5047771785649585
-11.76,-3.87,13.9,-0.6,0.64,-0.73,1721198963625,10000.0,18.61409412246537,1.1412712210513327,18.61409412246537,1.1412712210513327,-0.5766666666666662,-0.2299999999999999,172.74343333333331,0.5719000000000001,13.143189617947897,0.7562407024221852
-13.47,14.06,30.47,0.76,0.12,0.2,1721198963635,10000.0,36.15999723451317,0.7949842765740717,36.15999723451317,0.7949842765740717,10.353333333333332,0.36,492.9854333333334,0.1216,22.20327528391551,0.3487119154832538
-5.44,6.13,-17.21,0.11,0.1,1.5,1721198963645,10000.0,19.06186244835483,1.507348665704123,19.06186244835483,1.507348665704123,-5.506666666666668,0.57,136.19223333333332,0.6487,11.670142815464311,0.8054191455385202
4.09,12.83,7.18,-0.24,0.19,1.51,1721198963655,10000.0,15.260714268998028,1.5407141201403978,15.260714268998028,1.5407141201403978,8.033333333333333,0.4866666666666666,19.64303333333333,0.8316333333333333,4.432046179061466,0.9119393254670692
18.26,-8.94,4.41,-0.35,-0.03,0.44,1721198963665,10000.0,20.803828974494092,0.5630275304103699,20.803828974494092,0.5630275304103699,4.576666666666667,0.02,184.9808333333333,0.1578999999999999,13.600765909805716,0.3973663297261105
16.66,-7.31,17.76,-0.52,0.19,-0.69,1721198963675,10000.0,25.424580625843173,0.8846468221838588,25.424580625843173,0.8846468221838588,9.036666666666669,-0.34,200.71263333333337,0.2178999999999999,14.167308612906451,0.4667976006793522
-3.62,2.55,20.54,0.39,-0.55,-0.49,1721198963685,10000.0,21.011865695363657,0.8334866525625951,21.011865695363657,0.8334866525625951,6.489999999999999,-0.2166666666666666,157.56910000000002,0.2769333333333333,12.552653106017072,0.5262445565830903
-14.72,2.97,0.47,0.03,-0.16,0.4,1721198963695,10000.0,15.023987486682756,0.4318564576337837,15.023987486682756,0.4318564576337837,-3.76,0.09,91.6537,0.0811,9.573593891533108,0.2847806173179628
-7.28,6.39,10.9,0.21,0.11,1.1,1721198963705,10000.0,14.582198051048408,1.1252555265360842,14.582198051048408,1.1252555265360842,3.3366666666666664,0.4733333333333334,89.62023333333335,0.2970333333333334,9.46679636061394,0.5450076452063158
4.28,-8.83,-2.74,-0.44,-0.08,1.02,1721198963715,10000.0,10.18797820963512,1.1137324633860683,10.18797820963512,1.1137324633860683,-2.43,0.1666666666666666,43.04010000000001,0.5785333333333333,6.560495408122774,0.7606137872358963
3.06,-0.43,23.02,-0.12,0.26,0.1,1721198963725,10000.0,23.226469813555397,0.303315017762062,23.226469813555397,0.303315017762062,8.549999999999999,0.08,160.08069999999998,0.0364,12.652300186132164,0.1907878402833891
2.97,-0.39,2.73,0.34,-0.12,-0.13,1721198963735,10000.0,4.052887859292433,0.383275357934736,4.052887859292433,0.383275357934736,1.7700000000000002,0.03,3.5136000000000003,0.0721,1.874459922217597,0.268514431641951
-5.32,-2.42,-2.88,-0.29,0.04,0.37,1721198963745,10000.0,6.515612020370765,0.471805044483418,6.515612020370765,0.471805044483418,-3.5400000000000005,0.04,2.4292000000000007,0.1088999999999999,1.5585891055695211,0.3299999999999999
-2.64,-1.79,12.84,0.08,-0.22,0.71,1721198963755,10000.0,13.23024187231662,0.7475961476626267,13.23024187231662,0.7475961476626267,2.803333333333333,0.1899999999999999,75.73163333333335,0.2253,8.702392391367637,0.4746577714522327
2.72,1.84,14.38,0.05,-0.02,0.6,1721198963765,10000.0,14.750199998644089,0.6024118192731613,14.750199998644089,0.6024118192731613,6.3133333333333335,0.21,48.99693333333333,0.1153,6.999780948953569,0.3395585369269929
1.3,0.36,14.43,-0.25,-0.23,0.32,1721198963775,10000.0,14.492912060728168,0.4666904755831214,14.492912060728168,0.4666904755831214,5.363333333333333,-0.0533333333333333,61.87423333333333,0.1046333333333333,7.86601762859284,0.3234707611722168
-1.57,-1.3,11.88,0.01,-0.22,0.26,1721198963785,10000.0,12.05360112165655,0.3407345007480164,12.05360112165655,0.3407345007480164,3.003333333333334,0.0166666666666666,59.114633333333344,0.0576333333333333,7.688604121252006,0.2400694344004112
-1.8,0.56,-9.79,-0.15,-0.12,0.44,1721198963795,10000.0,9.969839517264056,0.4801041553663121,9.969839517264056,0.4801041553663121,-3.6766666666666654,0.0566666666666666,29.42203333333333,0.1104333333333333,5.424208083520886,0.3323151115031234
-2.37,-5.39,5.12,-0.78,0.44,0.44,1721198963805,10000.0,7.802781555317308,0.9977975746613138,7.802781555317308,0.9977975746613138,-0.8799999999999999,0.0333333333333333,29.2801,0.4961333333333334,5.411108943645471,0.7043673284113435
1.45,3.02,37.55,0.09,-0.15,0.4,1721198963815,10000.0,37.69914322633871,0.4365775990588615,37.69914322633871,0.4365775990588615,14.006666666666666,0.1133333333333333,416.3326333333332,0.0760333333333333,20.404230770439085,0.2757414247684474
2.63,-13.64,13.35,0.07,-0.38,0.33,1721198963825,10000.0,19.266265855115776,0.5081338406365,19.266265855115776,0.5081338406365,0.7799999999999994,0.0066666666666666,184.6819,0.1290333333333333,13.589771889181952,0.3592121007612819
-5.44,9.59,6.3,0.49,-0.58,0.56,1721198963835,10000.0,12.698492036458502,0.9434511116109832,12.698492036458502,0.9434511116109832,3.483333333333333,0.1566666666666667,62.42543333333335,0.4082333333333333,7.90097673286875,0.6389313995518872
8.3,8.46,-11.94,-0.14,0.44,0.54,1721198963845,10000.0,16.823352816843617,0.7104927867332644,16.823352816843617,0.7104927867332644,1.6066666666666674,0.28,137.64053333333334,0.1348,11.732030230669086,0.3671511950137164
-3.47,14.85,7.34,-0.25,-0.26,0.51,1721198963855,10000.0,16.924508855503014,0.6246599074696566,16.924508855503014,0.6246599074696566,6.239999999999999,0.0,84.81309999999999,0.1951,9.209402803656706,0.4417012565071555
1.11,-1.26,17.98,-0.5,0.05,0.04,1721198963865,10000.0,18.058241885632167,0.5040833264451424,18.058241885632167,0.5040833264451424,5.943333333333334,-0.1366666666666667,110.06523333333332,0.0990333333333333,10.491197897920586,0.3146956201368766
1.7,-13.85,32.68,-0.2,-0.18,-0.04,1721198963875,10000.0,35.534418526268304,0.2720294101747089,35.534418526268304,0.2720294101747089,6.843333333333334,-0.1399999999999999,561.1006333333333,0.0075999999999999,23.687562840725796,0.0871779788708134
-3.06,2.37,13.93,0.33,-0.13,-0.03,1721198963885,10000.0,14.457710745481112,0.3559494346111537,14.457710745481112,0.3559494346111537,4.413333333333333,0.0566666666666666,75.29643333333333,0.0585333333333333,8.677351746548789,0.241936630821654
-3.77,3.4,-5.7,-0.15,-0.14,0.74,1721198963895,10000.0,7.633013821551747,0.7679192665899196,7.633013821551747,0.7679192665899196,-2.023333333333333,0.15,22.99063333333333,0.2611,4.794854881363286,0.5109794516416487
-2.06,6.3,14.31,-0.12,0.3,0.67,1721198963905,10000.0,15.770532647948198,0.7438413809408563,15.770532647948198,0.7438413809408563,6.183333333333334,0.2833333333333334,67.00443333333334,0.1562333333333333,8.185623576327789,0.3952636251077669
7.22,2.07,5.88,0.09,-0.12,0.47,1721198963915,10000.0,9.53874729720837,0.4933558553417603,9.53874729720837,0.4933558553417603,5.056666666666666,0.1466666666666666,7.139033333333333,0.0894333333333333,2.6718969541008373,0.2990540642314251
2.93,0.62,20.88,-0.24,0.05,-0.05,1721198963925,10000.0,21.093688629540356,0.2501999200639361,21.093688629540356,0.2501999200639361,8.143333333333333,-0.08,123.00103333333333,0.0216999999999999,11.090583092576033,0.1473091986265623
1.45,6.22,12.39,0.25,-0.15,-0.01,1721198963935,10000.0,13.939261099498784,0.2917190429162964,13.939261099498784,0.2917190429162964,6.686666666666667,0.03,30.084233333333337,0.0412,5.484909601199762,0.2029778313018443
-2.66,0.32,3.33,-0.3,-0.02,0.14,1721198963945,10000.0,4.2739794103388,0.3316624790355399,4.2739794103388,0.3316624790355399,0.3299999999999999,-0.06,8.9701,0.0496,2.9950125208419416,0.2227105745132009
-7.52,4.57,7.03,0.19,-0.25,0.4,1721198963955,10000.0,11.26304576924022,0.5085272854036449,11.26304576924022,0.5085272854036449,1.3600000000000003,0.1133333333333333,60.65369999999999,0.1100333333333333,7.7880485360583105,0.3317127271199182
1.35,-7.11,-3.42,-0.41,0.21,0.8,1721198963965,10000.0,8.004436269969297,0.9231467922275416,8.004436269969297,0.9231467922275416,-3.06,0.2,17.9901,0.3661,4.241473800461344,0.6050619802962338
1.35,-5.77,31.78,-0.44,0.25,0.33,1721198963975,10000.0,32.32775587633636,0.6041522986797286,32.32775587633636,0.6041522986797286,9.12,0.0466666666666666,397.7803000000001,0.1792333333333333,19.94443030021164,0.423359579238894
1.95,0.46,14.03,0.36,-0.53,-0.23,1721198963985,10000.0,14.172332200453106,0.6807348970047004,14.172332200453106,0.6807348970047004,5.48,-0.1333333333333333,55.3819,0.2050333333333333,7.441901638694239,0.4528060659193219
-1.23,-4.88,18.28,-0.38,0.24,-0.32,1721198963995,10000.0,18.960108122054574,0.5517245689653488,18.960108122054574,0.5517245689653488,4.056666666666668,-0.1533333333333333,155.05803333333333,0.1169333333333333,12.452230054626092,0.3419551627528576
-8.83,9.14,17.12,0.71,-0.43,0.37,1721198964005,10000.0,21.32141880832512,0.9087904048789248,21.32141880832512,0.9087904048789248,5.81,0.2166666666666666,176.66730000000004,0.3425333333333333,13.29162518279838,0.5852634734316958
6.51,-1.19,-12.66,-0.22,0.05,0.8,1721198964015,10000.0,14.285370138711842,0.8312039460926542,14.285370138711842,0.8312039460926542,-2.4466666666666668,0.21,93.05663333333334,0.2793,9.646586615654956,0.5284884104689525
-0.54,9.25,18.98,-0.11,0.3,0.57,1721198964025,10000.0,21.12094931578597,0.6534523701081816,21.12094931578597,0.6534523701081816,9.23,0.2533333333333333,95.2579,0.1172333333333333,9.760015368840358,0.3423935357645253
7.46,-7.23,4.41,-0.08,-0.27,-0.02,1721198964035,10000.0,11.285947013875266,0.2823118842698621,11.285947013875266,0.2823118842698621,1.5466666666666666,-0.1233333333333333,60.09803333333333,0.0170333333333333,7.752292134158344,0.1305118130030126
-4.66,-1.72,16.9,0.0,-0.19,-0.29,1721198964045,10000.0,17.614880073392495,0.3466987164671943,17.614880073392495,0.3466987164671943,3.5066666666666664,-0.16,136.69693333333333,0.0216999999999999,11.691746376539877,0.1473091986265623
-2.59,5.19,10.79,0.46,-0.02,0.05,1721198964055,10000.0,12.25023673240644,0.4631414470763764,12.25023673240644,0.4631414470763764,4.463333333333334,0.1633333333333333,45.152133333333325,0.0672333333333333,6.719533713981449,0.2592939130279253
-0.8,2.43,6.89,-0.09,-0.02,0.44,1721198964065,10000.0,7.34962584081666,0.4495553358597804,7.34962584081666,0.4495553358597804,2.84,0.11,14.910099999999998,0.0829,3.8613598640893336,0.2879236009777594
0.68,5.87,5.41,0.1,-0.19,0.56,1721198964075,10000.0,8.011703938613808,0.599749947894954,8.011703938613808,0.599749947894954,3.986666666666667,0.1566666666666667,8.253433333333334,0.1430333333333333,2.8728789277192543,0.3781974792794543
7.3,-4.6,6.8,-0.55,0.23,0.15,1721198964085,10000.0,10.985900054160332,0.6147357155721473,10.985900054160332,0.6147357155721473,3.1666666666666665,-0.0566666666666666,45.30333333333333,0.1841333333333333,6.730775091572539,0.4291076011134426
1.4,1.97,16.22,0.08,-0.46,-0.13,1721198964095,10000.0,16.399063997679868,0.4846648326421053,16.399063997679868,0.4846648326421053,6.53,-0.17,70.5033,0.0741,8.396624321714054,0.272213151776324
-0.45,-5.89,-0.03,-0.05,-0.04,0.01,1721198964105,10000.0,5.90724131892375,0.0648074069840786,5.90724131892375,0.0648074069840786,-2.123333333333333,-0.0266666666666666,10.684933333333332,0.0010333333333333,3.268781628272732,0.0321455025366431
-4.78,1.44,23.67,-0.04,0.1,0.26,1721198964115,10000.0,24.190719294803948,0.2814249455894058,24.190719294803948,0.2814249455894058,6.776666666666667,0.1066666666666666,223.71063333333336,0.0225333333333333,14.956959361224907,0.1501110699893027
-1.59,1.15,0.84,0.35,-0.39,0.44,1721198964125,10000.0,2.134525708442041,0.6842514157822401,2.134525708442041,0.6842514157822401,0.1333333333333332,0.1333333333333333,2.2514333333333334,0.2074333333333333,1.5004777017114694,0.4554484969053398
4.2,-2.16,12.38,-0.36,0.48,0.25,1721198964135,10000.0,13.25028301584536,0.65,13.25028301584536,0.65,4.806666666666668,0.1233333333333333,53.128933333333336,0.1884333333333332,7.288959688003037,0.4340890845590721
5.15,4.22,13.73,0.2,-0.16,0.15,1721198964145,10000.0,15.259220163560128,0.2968164415931166,15.259220163560128,0.2968164415931166,7.7,0.0633333333333333,27.4869,0.0380333333333333,5.242795056074574,0.1950213663508009
2.65,3.34,9.59,0.07,0.2,-0.01,1721198964155,10000.0,10.495055978888344,0.2121320343559642,10.495055978888344,0.2121320343559642,5.193333333333333,0.0866666666666666,14.617033333333334,0.0112333333333333,3.823222898724757,0.1059874206372309
-0.45,2.85,18.77,-0.01,-0.09,0.15,1721198964165,10000.0,18.990468661936703,0.1752141546793523,18.990468661936703,0.1752141546793523,7.056666666666666,0.0166666666666666,105.62413333333336,0.0149333333333333,10.277360231758609,0.1222020185321557
-0.62,3.4,27.18,0.14,0.03,0.12,1721198964175,10000.0,27.39884669105617,0.186815416922694,27.39884669105617,0.186815416922694,9.986666666666666,0.0966666666666666,225.74813333333336,0.0034333333333333,15.02491708241125,0.0585946527708231
1.37,3.41,2.98,0.54,-0.28,0.23,1721198964185,10000.0,4.731321168553241,0.6503076195155644,4.731321168553241,0.6503076195155644,2.5866666666666664,0.1633333333333333,1.1564333333333332,0.1714333333333333,1.0753759032697976,0.4140450861118066
4.46,2.53,8.07,-0.15,0.48,0.02,1721198964195,10000.0,9.561244688846742,0.5032891812864648,9.561244688846742,0.5032891812864648,5.0200000000000005,0.1166666666666666,7.908100000000001,0.1062333333333333,2.812134420684758,0.3259345537578569
1.4,6.62,16.89,0.41,0.0,-0.2,1721198964205,10000.0,18.1949580928344,0.4561797891182817,18.1949580928344,0.4561797891182817,8.303333333333333,0.0699999999999999,62.11023333333333,0.0967,7.881004589094802,0.3109662361093242
-1.13,6.92,-6.33,0.31,-0.03,-0.18,1721198964215,10000.0,9.446279690968291,0.359722114972099,9.446279690968291,0.359722114972099,-0.18,0.0333333333333333,44.5675,0.0630333333333333,6.675889453848079,0.251064400768674
1.24,-2.3,6.97,-0.34,0.43,0.12,1721198964225,10000.0,7.443688601761898,0.561159513863928,7.443688601761898,0.561159513863928,1.97,0.0699999999999999,21.8829,0.1501,4.67791620275524,0.3874274125562103
-0.26,-0.48,19.92,0.11,-0.06,0.1,1721198964235,10000.0,19.92747851585845,0.1603121954188139,19.92747851585845,0.1603121954188139,6.393333333333334,0.05,137.24013333333335,0.0091,11.714953407219909,0.0953939201416945
0.41,3.2,8.72,0.0,0.17,-0.21,1721198964245,10000.0,9.297660996186083,0.2701851217221259,9.297660996186083,0.2701851217221259,4.11,-0.0133333333333333,17.8851,0.0362333333333333,4.22907791368284,0.1903505538035898
-0.93,2.18,11.17,0.06,-0.06,-0.11,1721198964255,10000.0,11.41867768176333,0.138924439894498,11.41867768176333,0.138924439894498,4.14,-0.0366666666666666,39.4837,0.0076333333333333,6.283605652807948,0.087368949480541
-2.48,2.98,8.97,0.05,0.14,-0.03,1721198964265,10000.0,9.771985468675238,0.151657508881031,9.771985468675238,0.151657508881031,3.1566666666666667,0.0533333333333333,32.79903333333334,0.0072333333333333,5.727044031027991,0.0850490054811538
0.03,1.74,12.29,-0.06,0.13,0.08,1721198964275,10000.0,12.412598438683174,0.1640121946685672,12.412598438683174,0.1640121946685672,4.6866666666666665,0.05,44.089033333333326,0.0097,6.63995732918016,0.098488578017961
-0.05,-0.69,8.44,-0.06,-0.09,0.08,1721198964285,10000.0,8.468305615647088,0.1345362404707371,8.468305615647088,0.1345362404707371,2.5666666666666664,-0.0233333333333333,25.97443333333333,0.0082333333333333,5.096511879053489,0.0907377172587746
0.97,1.99,11.09,0.05,0.19,-0.13,1721198964295,10000.0,11.30880630305427,0.2355843797877949,11.30880630305427,0.2355843797877949,4.683333333333334,0.0366666666666666,31.04413333333333,0.0257333333333333,5.571726243574188,0.1604161255402128
1.13,-1.23,5.18,-0.11,-0.0,-0.21,1721198964305,10000.0,5.442628041672515,0.2370653918225939,5.442628041672515,0.2370653918225939,1.6933333333333334,-0.1066666666666666,10.510033333333332,0.0110333333333333,3.2419181564828765,0.1050396750439248
-2.09,3.42,15.15,-0.02,0.09,-0.11,1721198964315,10000.0,15.671215651633412,0.1435270009440732,15.671215651633412,0.1435270009440732,5.493333333333333,-0.0133333333333333,77.52843333333333,0.0100333333333333,8.805023187552282,0.1001665280087781
0.89,0.9,7.55,0.05,0.08,0.02,1721198964325,10000.0,7.655364132423748,0.0964365076099295,7.655364132423748,0.0964365076099295,3.1133333333333333,0.0499999999999999,14.763033333333333,0.0009,3.842269294744101,0.03
0.97,-6.36,8.62,-0.27,0.08,-0.11,1721198964335,10000.0,10.75615637669888,0.3023243291566195,10.75615637669888,0.3023243291566195,1.0766666666666662,-0.0999999999999999,56.10863333333333,0.0307,7.490569626759592,0.1752141546793523
-2.81,2.08,16.21,-0.01,0.17,-0.62,1721198964345,10000.0,16.582719921653386,0.6429618962271404,16.582719921653386,0.6429618962271404,5.16,-0.1533333333333333,97.55490000000002,0.1714333333333333,9.876988407404356,0.4140450861118066
-9.09,-1.83,0.62,-0.01,-0.45,-0.22,1721198964355,10000.0,9.293083449533851,0.5009990019950139,9.293083449533851,0.5009990019950139,-3.4333333333333336,-0.2266666666666666,25.499033333333337,0.0484333333333333,5.049656754011439,0.2200757445365875
-4.63,-7.24,10.04,-0.43,0.32,0.79,1721198964365,10000.0,13.215751964984817,0.95467271878901,13.215751964984817,0.95467271878901,-0.6100000000000007,0.2266666666666666,86.7699,0.3786333333333334,9.315036231813597,0.6153318887668129
9.13,1.83,12.79,0.24,0.14,0.68,1721198964375,10000.0,15.8205530876768,0.7345747068882784,15.8205530876768,0.7345747068882784,7.916666666666667,0.3533333333333333,31.13453333333333,0.0825333333333333,5.57983273345477,0.2872861523522033
14.26,-3.59,1.13,-0.23,0.01,-0.43,1721198964385,10000.0,14.74830837757334,0.4877499359302879,14.74830837757334,0.4877499359302879,3.9333333333333336,-0.2166666666666666,85.54963333333333,0.0485333333333333,9.249304478355835,0.220302821891444
-4.65,7.48,18.49,-0.05,-0.13,-1.49,1721198964395,10000.0,20.48055175038016,1.4964959071110084,20.48055175038016,1.4964959071110084,7.1066666666666665,-0.5566666666666666,133.96943333333334,0.6549333333333334,11.57451654857918,0.8092795149596543
