AccX,AccY,AccZ,GyrX,GyrY,GyrZ,Time,TimeDiff(ms),Acc_Magnitude,Gyr_Magnitude,Acc_L2Norm,Gyr_L2Norm,Acc_Mean,Gyr_Mean,Acc_Variance,Gyr_Variance,Acc_StdDev,Gyr_StdDev
-0.14,1.39,10.95,-0.0,0.06,-0.19,1721198948644,542000.0,11.038758988219644,0.1992485884517127,11.038758988219644,0.1992485884517127,4.066666666666666,-0.0433333333333333,36.12043333333333,0.0170333333333333,6.010027731494533,0.1305118130030126
-1.08,1.32,10.08,0.04,-0.01,-0.14,1721198948648,4000.0,10.223267579399456,0.1459451951932642,10.223267579399456,0.1459451951932642,3.44,-0.0366666666666666,34.5072,0.0086333333333333,5.874282934963211,0.0929157324317756
0.72,-1.95,7.22,-0.08,-0.0,-0.06,1721198948657,9000.0,7.513274918436035,0.1,7.513274918436035,0.1,1.9966666666666668,-0.0466666666666666,22.244633333333333,0.0017333333333333,4.716421666192849,0.0416333199893226
-0.66,-0.26,10.94,-0.02,-0.03,-0.18,1721198948667,10000.0,10.962974049043444,0.1835755975068582,10.962974049043444,0.1835755975068582,3.34,-0.0766666666666666,43.36,0.0080333333333333,6.584831053261731,0.089628864398325
-0.28,-0.72,7.33,0.01,-0.04,-0.24,1721198948676,9000.0,7.370596990746408,0.2435159132377184,7.370596990746408,0.2435159132377184,2.11,-0.09,20.484700000000004,0.0174999999999999,4.526002651346992,0.1322875655532295
-0.96,2.31,11.87,0.04,0.02,-0.22,1721198948686,10000.0,12.130729574102292,0.2244994432064364,12.130729574102292,0.2244994432064364,4.406666666666666,-0.0533333333333333,44.449233333333325,0.0209333333333333,6.667025823658802,0.1446835627614047
-0.96,2.62,10.01,0.11,-0.02,-0.16,1721198948695,9000.0,10.391636059831963,0.1951922129594313,10.391636059831963,0.1951922129594313,3.89,-0.0233333333333333,31.294899999999995,0.0182333333333333,5.594184480333125,0.1350308606701939
-1.56,4.33,8.5,0.12,-0.03,-0.05,1721198948705,10000.0,9.666048830830515,0.1334166406412633,9.666048830830515,0.1334166406412633,3.7566666666666655,0.0133333333333333,25.547433333333338,0.0086333333333333,5.054446886983119,0.0929157324317756
0.72,0.49,7.69,-0.07,0.05,-0.05,1721198948715,10000.0,7.739160161154439,0.099498743710662,7.739160161154439,0.099498743710662,2.966666666666667,-0.0233333333333333,16.745633333333338,0.0041333333333333,4.092142877922683,0.0642910050732863
0.95,0.4,13.63,-0.03,-0.03,-0.2,1721198948725,10000.0,13.668920952291735,0.2044504830026087,13.668920952291735,0.2044504830026087,4.993333333333333,-0.0866666666666666,56.01963333333333,0.0096333333333333,7.484626465852076,0.0981495457622363
0.56,0.19,13.12,0.06,0.01,-0.23,1721198948735,10000.0,13.13332021995961,0.2379075450674063,13.13332021995961,0.2379075450674063,4.623333333333333,-0.0533333333333333,54.17923333333332,0.0240333333333333,7.3606544093126205,0.1550268793897798
-1.54,3.17,9.86,0.14,-0.05,-0.25,1721198948745,10000.0,10.470916865298854,0.2908607914449798,10.470916865298854,0.2908607914449798,3.83,-0.0533333333333333,32.8167,0.0380333333333333,5.728586213019753,0.195021366350801
-1.02,0.34,7.6,0.02,0.05,-0.06,1721198948754,9000.0,7.675675866006849,0.0806225774829855,7.675675866006849,0.0806225774829855,2.306666666666666,0.0033333333333333,21.47693333333333,0.0032333333333333,4.63432123760679,0.0568624070307732
-0.09,-0.04,10.21,0.02,0.03,-0.06,1721198948764,10000.0,10.210475013435955,0.0699999999999999,10.210475013435955,0.0699999999999999,3.36,-0.0033333333333333,35.19250000000001,0.0024333333333333,5.932326693633789,0.0493288286231624
0.45,0.61,9.68,0.02,0.01,-0.2,1721198948773,9000.0,9.7096343906452,0.2012461179749811,9.7096343906452,0.2012461179749811,3.58,-0.0566666666666666,27.9139,0.0154333333333333,5.283360672905078,0.1242309676905615
-0.79,2.73,11.73,-0.01,0.0,-0.27,1721198948783,10000.0,12.069378608693988,0.2701851217221259,12.069378608693988,0.2701851217221259,4.556666666666667,-0.0933333333333333,41.690133333333335,0.0234333333333333,6.456789707999892,0.1530795000427338
-1.01,0.59,7.17,0.05,-0.09,-0.16,1721198948793,10000.0,7.264784924552137,0.1902629759044045,7.264784924552137,0.1902629759044045,2.25,-0.0666666666666666,18.7948,0.0114333333333333,4.335296990979972,0.1069267662156362
-0.79,0.6,13.16,-0.06,0.14,-0.11,1721198948803,10000.0,13.19733685256234,0.1878829422805593,13.19733685256234,0.1878829422805593,4.323333333333333,-0.0099999999999999,59.04803333333332,0.0175,7.684271815424889,0.1322875655532295
0.29,-0.27,11.8,0.07,-0.07,-0.11,1721198948813,10000.0,11.806650668161568,0.1479864858694874,11.806650668161568,0.1479864858694874,3.94,-0.0366666666666666,46.41310000000001,0.0089333333333333,6.812716051619941,0.0945163125250521
-0.9,2.19,12.09,0.07,-0.0,-0.16,1721198948823,10000.0,12.319667203297335,0.1746424919657298,12.319667203297335,0.1746424919657298,4.46,-0.03,46.0497,0.0139,6.7859929266099295,0.1178982612255159
-0.18,1.23,10.77,0.11,0.02,-0.17,1721198948833,10000.0,10.841503585757836,0.203469899493758,10.841503585757836,0.203469899493758,3.94,-0.0133333333333333,35.4837,0.0204333333333333,5.956819621240851,0.1429452109492771
-1.17,1.68,9.8,0.11,-0.08,-0.14,1721198948843,10000.0,10.011558320261637,0.1951922129594313,10.011558320261637,0.1951922129594313,3.436666666666667,-0.0366666666666666,32.39963333333334,0.0170333333333333,5.692067579828382,0.1305118130030126
-0.3,0.81,10.74,0.1,0.03,-0.1,1721198948853,10000.0,10.77467864950041,0.1445683229480096,10.77467864950041,0.1445683229480096,3.75,0.01,36.9531,0.0103,6.078906151603263,0.1014889156509221
0.28,0.5,10.33,0.09,-0.01,-0.11,1721198948863,10000.0,10.34588323924062,0.14247806848775,10.34588323924062,0.14247806848775,3.703333333333333,-0.01,32.94663333333333,0.01,5.739915794968889,0.1
-0.33,1.71,7.71,0.14,-0.05,-0.1,1721198948873,10000.0,7.904245694561879,0.1791647286716891,7.904245694561879,0.1791647286716891,3.03,-0.0033333333333333,17.4672,0.0160333333333333,4.17937794414432,0.1266227994214838
0.58,3.73,8.62,0.1,0.09,-0.1,1721198948883,10000.0,9.41029755108732,0.1676305461424021,9.41029755108732,0.1676305461424021,4.31,0.03,16.412699999999997,0.0127,4.05125906355049,0.1126942766958464
1.31,2.34,3.29,0.04,-0.04,-0.08,1721198948893,10000.0,4.244502326539591,0.0979795897113271,4.244502326539591,0.0979795897113271,2.313333333333333,-0.0266666666666666,0.9806333333333334,0.0037333333333333,0.9902693236354104,0.0611010092660778
1.03,1.13,6.88,-0.12,0.05,-0.18,1721198948903,10000.0,7.04785073621739,0.2220360331117451,7.04785073621739,0.2220360331117451,3.013333333333333,-0.0833333333333333,11.215833333333332,0.0142333333333333,3.349004827308156,0.1193035344544885
1.27,-0.72,11.37,-0.14,0.07,-0.28,1721198948913,10000.0,11.46334157215949,0.3207802986469088,11.46334157215949,0.3207802986469088,3.973333333333333,-0.1166666666666666,42.02303333333333,0.0310333333333333,6.482517515081107,0.1761628034896508
-1.22,-0.06,14.11,-0.05,-0.03,-0.3,1721198948923,10000.0,14.162771621402358,0.3056141357987225,14.162771621402358,0.3056141357987225,4.276666666666666,-0.1266666666666666,72.85723333333331,0.0226333333333333,8.53564486921365,0.1504437879519567
-1.46,-1.02,12.21,-0.03,0.02,-0.12,1721198948933,10000.0,12.339209861251248,0.1252996408614166,12.339209861251248,0.1252996408614166,3.2433333333333336,-0.0433333333333333,60.34923333333333,0.0050333333333333,7.768476899195448,0.0709459888459758
0.28,-1.34,13.73,-0.05,0.06,-0.04,1721198948943,10000.0,13.798075952827626,0.0877496438739212,13.798075952827626,0.0877496438739212,4.223333333333334,-0.01,68.43863333333334,0.0037,8.272764552030557,0.0608276253029822
1.95,-2.04,13.14,-0.01,0.05,-0.17,1721198948953,10000.0,13.439631691382022,0.1774823934929885,13.439631691382022,0.1774823934929885,4.3500000000000005,-0.0433333333333333,61.92809999999999,0.0129333333333333,7.869440895006455,0.1137248140615465
1.09,-0.77,9.22,0.05,0.01,-0.28,1721198948963,10000.0,9.316082867815208,0.2846049894151541,9.316082867815208,0.2846049894151541,3.18,-0.0733333333333333,28.22610000000001,0.0324333333333333,5.312824107760393,0.1800925687898679
0.06,-1.48,6.28,-0.09,0.13,-0.27,1721198948973,10000.0,6.452317413147001,0.3128897569432403,6.452317413147001,0.3128897569432403,1.62,-0.0766666666666666,16.879600000000003,0.0401333333333333,4.108479037308089,0.2003330560175562
-1.02,0.12,9.77,-0.1,0.08,-0.24,1721198948983,10000.0,9.823833264057363,0.2720294101747089,9.823833264057363,0.2720294101747089,2.9566666666666666,-0.0866666666666666,35.141033333333326,0.0257333333333333,5.927987291934196,0.1604161255402128
-0.95,-0.39,9.13,-0.08,0.04,-0.13,1721198948993,10000.0,9.18757312896066,0.157797338380595,9.18757312896066,0.157797338380595,2.596666666666667,-0.0566666666666666,32.09173333333334,0.0076333333333333,5.66495660471758,0.087368949480541
0.5,1.1,16.59,-0.09,0.21,-0.18,1721198949003,10000.0,16.63394421055932,0.2908607914449797,16.63394421055932,0.2908607914449797,6.0633333333333335,-0.02,83.19803333333334,0.0416999999999999,9.12129559510782,0.2042057785666213
0.11,-1.21,10.65,0.01,-0.04,-0.2,1721198949013,10000.0,10.71908111733464,0.2042057785666214,10.71908111733464,0.2042057785666214,3.1833333333333336,-0.0766666666666666,42.24893333333334,0.0120333333333333,6.499917948200065,0.1096965511460289
-1.62,1.03,11.69,-0.02,0.13,-0.18,1721198949023,10000.0,11.846577564849689,0.2229349680960795,11.846577564849689,0.2229349680960795,3.7,-0.0233333333333333,49.6357,0.0240333333333333,7.04526081845094,0.1550268793897798
-0.35,2.91,7.26,0.04,0.11,-0.14,1721198949033,10000.0,7.8293167007089455,0.1824828759089466,7.8293167007089455,0.1824828759089466,3.273333333333333,0.0033333333333333,14.577033333333333,0.0166333333333333,3.8179881264002553,0.128970280814354
0.42,1.5,5.71,-0.11,0.07,-0.09,1721198949043,10000.0,5.918656942246273,0.1584297951775486,5.918656942246273,0.1584297951775486,2.543333333333333,-0.0433333333333333,7.812433333333333,0.0097333333333333,2.7950730461534152,0.0986576572463249
0.32,2.25,12.15,-0.13,0.21,-0.24,1721198949053,10000.0,12.360720043751495,0.3443835071544512,12.360720043751495,0.3443835071544512,4.906666666666667,-0.0533333333333333,40.28063333333333,0.0550333333333333,6.346702555920936,0.234591844132172
-0.06,-1.5,10.83,-0.09,0.05,-0.28,1721198949063,10000.0,10.933549286485151,0.2983286778035259,10.933549286485151,0.2983286778035259,3.09,-0.1066666666666666,45.4491,0.0274333333333333,6.741594766818902,0.1656301099840646
-2.76,2.47,8.24,0.02,0.05,-0.21,1721198949073,10000.0,9.034162938535037,0.2167948338867879,9.034162938535037,0.2167948338867879,2.6500000000000004,-0.0466666666666666,30.2743,0.0202333333333333,5.502208647443315,0.1422439219556791
0.14,0.27,5.15,-0.11,0.19,-0.02,1721198949083,10000.0,5.158972765968048,0.220454076850486,5.158972765968048,0.220454076850486,1.8533333333333333,0.02,8.155233333333335,0.0237,2.855736915987419,0.1539480431834065
0.55,3.26,10.39,-0.06,0.09,-0.14,1721198949093,10000.0,10.903311423599714,0.1769180601295413,10.903311423599714,0.1769180601295413,4.733333333333333,-0.0366666666666666,25.834433333333337,0.0136333333333333,5.082758437436638,0.1167618659209133
1.53,0.71,6.5,-0.03,0.09,-0.29,1721198949103,10000.0,6.715281081235543,0.3051229260478471,6.715281081235543,0.3051229260478471,2.9133333333333336,-0.0766666666666666,9.816233333333331,0.0377333333333333,3.133086869739384,0.1942506971244461
-0.07,-1.2,13.24,-0.22,0.21,-0.37,1721198949113,10000.0,13.294453730785632,0.4789572005931218,13.294453730785632,0.4789572005931218,3.99,-0.1266666666666666,64.4911,0.0906333333333333,8.030635093191572,0.301053705064949
-3.8,-0.72,16.43,0.05,-0.02,-0.36,1721198949123,10000.0,16.87907876633082,0.3640054944640259,16.87907876633082,0.3640054944640259,3.97,-0.1099999999999999,118.81029999999998,0.0480999999999999,10.900013761459205,0.219317121994613
-4.1,1.29,12.66,0.15,0.14,-0.11,1721198949133,10000.0,13.36973073775235,0.2328089345364563,13.36973073775235,0.2328089345364563,3.2833333333333337,0.06,73.20443333333333,0.0216999999999999,8.55595893709953,0.1473091986265623
0.3,1.75,12.43,0.06,0.18,0.09,1721198949143,10000.0,12.556169798151029,0.21,12.556169798151029,0.21,4.826666666666667,0.1099999999999999,43.883633333333336,0.0038999999999999,6.624472306028106,0.0624499799839839
0.6,10.34,16.12,0.28,0.08,-0.04,1721198949153,10000.0,19.16063673263496,0.2939387691339814,19.16063673263496,0.2939387691339814,9.02,0.1066666666666666,61.52440000000001,0.0261333333333333,7.843749103585607,0.1616580753730952
3.35,2.3,7.49,0.08,0.14,-0.28,1721198949163,10000.0,8.52130271730796,0.3231098884280702,8.52130271730796,0.3231098884280702,4.38,-0.02,7.529700000000001,0.0516,2.7440298832192043,0.2271563338320109
-0.88,-1.34,15.78,0.11,0.13,-0.43,1721198949173,10000.0,15.861223155860332,0.462493243193887,15.861223155860332,0.462493243193887,4.52,-0.0633333333333333,95.1436,0.1009333333333333,9.754158087708031,0.3177000681985027
-2.35,2.73,6.78,0.35,0.11,-0.25,1721198949183,10000.0,7.677486567881444,0.4439594576084623,7.677486567881444,0.4439594576084623,2.3866666666666667,0.0699999999999999,20.927633333333333,0.0912,4.574673030210283,0.30199337741083
-2.65,5.95,7.82,0.19,0.17,-0.03,1721198949193,10000.0,10.177298266239426,0.2567099530598687,10.177298266239426,0.2567099530598687,3.706666666666667,0.1099999999999999,31.17963333333333,0.0148,5.583872610772325,0.1216552506059644
-0.23,2.15,4.66,0.21,0.09,0.05,1721198949203,10000.0,5.137217145498134,0.23388031127053,5.137217145498134,0.23388031127053,2.1933333333333334,0.1166666666666666,5.979433333333334,0.0069333333333333,2.4452879857663663,0.0832666399786453
1.43,2.32,13.83,0.13,0.3,-0.22,1721198949213,10000.0,14.095963961361422,0.3940812099047606,14.095963961361422,0.3940812099047606,5.859999999999999,0.0699999999999999,47.8387,0.0702999999999999,6.9165526095013545,0.265141471671257
0.19,-0.13,6.52,0.18,-0.08,-0.21,1721198949223,10000.0,6.524063151135188,0.2879236009777594,6.524063151135188,0.2879236009777594,2.193333333333333,-0.0366666666666666,14.065633333333327,0.0394333333333333,3.7504177545086,0.198578280114753
-2.97,3.44,10.83,0.1,0.2,-0.19,1721198949233,10000.0,11.744930821422493,0.2934280150224242,11.744930821422493,0.2934280150224242,3.766666666666667,0.0366666666666666,47.69003333333333,0.0410333333333333,6.905797081679517,0.2025668613898466
-0.19,-0.94,9.25,0.08,0.2,-0.13,1721198949243,10000.0,9.299580635706109,0.2515949125081825,9.299580635706109,0.2515949125081825,2.706666666666667,0.05,32.25203333333333,0.0279,5.67908736799614,0.1670329308849006
-1.39,4.04,11.26,0.2,0.08,-0.04,1721198949253,10000.0,12.043309345856729,0.2190890230020664,12.043309345856729,0.2190890230020664,4.636666666666667,0.08,40.27263333333333,0.0144,6.346072276088048,0.12
0.55,1.51,9.35,0.02,0.27,-0.12,1721198949263,10000.0,9.48710177029845,0.2961418578992169,9.48710177029845,0.2961418578992169,3.803333333333333,0.0566666666666666,23.30453333333333,0.0390333333333333,4.82747691173488,0.1975685535031659
-1.04,2.67,8.53,0.08,-0.02,-0.18,1721198949273,10000.0,8.998410970832571,0.1979898987322333,8.998410970832571,0.1979898987322333,3.3866666666666667,-0.04,23.28143333333333,0.0171999999999999,4.825083764385166,0.13114877048604
-0.77,1.45,5.45,-0.06,0.18,-0.14,1721198949283,10000.0,5.691915319117107,0.2357965224510319,5.691915319117107,0.2357965224510319,2.043333333333333,-0.0066666666666666,9.936133333333334,0.0277333333333333,3.15216327834288,0.1665332799572906
0.29,-3.65,8.58,-0.19,0.12,-0.08,1721198949293,10000.0,9.328611901027934,0.2385372088375312,9.328611901027934,0.2385372088375312,1.7400000000000002,-0.05,38.9701,0.0247,6.242603623489161,0.1571623364550171
-1.96,-2.76,10.84,-0.07,-0.03,-0.11,1721198949303,10000.0,11.35626699228228,0.1337908816025965,11.35626699228228,0.1337908816025965,2.04,-0.07,58.24000000000001,0.0016,7.631513611335566,0.04
-1.5,2.79,15.03,0.14,0.18,-0.21,1721198949313,10000.0,15.360175780244182,0.31,15.360175780244182,0.31,5.44,0.0366666666666666,73.5771,0.0460333333333333,8.577709484471947,0.2145538005567212
-0.83,1.0,4.83,0.01,0.02,-0.1,1721198949323,10000.0,5.001779683272745,0.1024695076595959,5.001779683272745,0.1024695076595959,1.6666666666666667,-0.0233333333333333,8.342233333333333,0.0044333333333333,2.8882924597992727,0.0665832811847939
-1.13,-4.07,3.2,-0.38,0.07,0.07,1721198949333,10000.0,5.299226358630098,0.3926830783214372,5.299226358630098,0.3926830783214372,-0.6666666666666666,-0.08,13.374233333333336,0.0675,3.657079891571052,0.2598076211353316
0.57,-0.58,19.27,0.02,0.25,-0.1,1721198949343,10000.0,19.287151163404097,0.2699999999999999,19.287151163404097,0.2699999999999999,6.419999999999999,0.0566666666666666,124.1725,0.0316333333333333,11.143271512441936,0.177857620959388
2.2,-1.75,-0.08,-0.01,-0.09,-0.17,1721198949353,10000.0,2.8122766577988023,0.1926136028425822,2.8122766577988023,0.1926136028425822,0.1233333333333333,-0.09,3.931633333333333,0.0064,1.9828346712051748,0.08
-3.48,0.97,9.42,-0.32,0.14,-0.23,1721198949363,10000.0,10.088989047471506,0.4182104733265296,10.088989047471506,0.4182104733265296,2.303333333333333,-0.1366666666666667,42.935833333333335,0.0594333333333333,6.552544035207496,0.2437895267096873
-0.31,-4.99,27.4,0.01,0.26,-0.22,1721198949373,10000.0,27.852400255633263,0.3407345007480164,27.852400255633263,0.3407345007480164,7.366666666666666,0.0166666666666666,306.47643333333326,0.0576333333333333,17.50646832840174,0.2400694344004112
-4.18,0.56,12.61,0.32,-0.24,0.05,1721198949383,10000.0,13.296544663934313,0.4031128874149275,13.296544663934313,0.4031128874149275,2.9966666666666666,0.0433333333333333,74.92903333333332,0.0784333333333333,8.656155805745026,0.2800595174839329
-0.95,7.58,2.3,0.05,0.2,0.22,1721198949393,10000.0,7.978026071654567,0.3014962686336267,7.978026071654567,0.3014962686336267,2.9766666666666666,0.1566666666666666,18.53363333333333,0.0086333333333333,4.305070653698187,0.0929157324317756
5.24,-3.41,5.12,-0.37,0.2,0.05,1721198949403,10000.0,8.08084772780678,0.4235563716909474,8.08084772780678,0.4235563716909474,2.316666666666667,-0.0399999999999999,24.599633333333333,0.0873,4.95980174334956,0.2954657340538831
2.66,-6.87,16.58,-0.08,0.07,-0.37,1721198949413,10000.0,18.14301242903173,0.3849675310984031,18.14301242903173,0.3849675310984031,4.123333333333332,-0.1266666666666666,139.08163333333331,0.0500333333333333,11.793287638878876,0.2236813209307682
-3.35,-1.51,7.57,0.09,-0.01,-0.29,1721198949423,10000.0,8.41471924665345,0.3038091506192662,8.41471924665345,0.3038091506192662,0.9033333333333332,-0.0699999999999999,34.17973333333334,0.0387999999999999,5.846343586664518,0.196977156035922
-4.63,8.39,13.17,0.16,0.16,0.09,1721198949433,10000.0,16.28735399013603,0.2435159132377184,16.28735399013603,0.2435159132377184,5.6433333333333335,0.1366666666666667,84.86813333333333,0.0016333333333333,9.212390207396414,0.0404145188432738
1.79,4.27,6.85,-0.05,0.16,0.28,1721198949443,10000.0,8.26798040636285,0.3263433774416144,8.26798040636285,0.3263433774416144,4.303333333333334,0.13,6.401733333333333,0.0279,2.5301646850221693,0.1670329308849006
1.57,2.76,12.34,-0.07,0.02,0.13,1721198949453,10000.0,12.741981792484244,0.1489966442575134,12.741981792484244,0.1489966442575134,5.556666666666668,0.0266666666666666,34.86423333333333,0.0100333333333333,5.904594256452626,0.1001665280087781
2.69,0.29,14.4,-0.0,0.2,-0.18,1721198949463,10000.0,14.651969150936676,0.2690724809414742,14.651969150936676,0.2690724809414742,5.793333333333333,0.0066666666666666,56.99603333333334,0.0361333333333333,7.54957173178276,0.1900876990584434
0.58,1.91,11.08,0.01,-0.03,-0.22,1721198949473,10000.0,11.25837021953,0.2222611077089286,11.25837021953,0.2222611077089286,4.523333333333333,-0.08,32.68463333333334,0.0151,5.717047606355341,0.122882057274445
-2.71,5.08,11.04,0.02,0.11,-0.03,1721198949483,10000.0,12.451188698272947,0.1157583690279022,12.451188698272947,0.1157583690279022,4.47,0.0333333333333333,47.54469999999999,0.0050333333333333,6.895266492311953,0.0709459888459758
-0.34,2.46,10.08,0.05,0.17,0.1,1721198949493,10000.0,10.38140645577467,0.203469899493758,10.38140645577467,0.203469899493758,4.066666666666666,0.1066666666666666,29.080133333333336,0.0036333333333333,5.3925998677199605,0.060277137733417
2.1,-1.24,10.44,-0.08,0.07,-0.07,1721198949503,10000.0,10.721063380094344,0.1272792206135785,10.721063380094344,0.1272792206135785,3.766666666666666,-0.0266666666666666,36.18893333333333,0.0070333333333333,6.015723841179325,0.0838649708360608
-0.38,2.27,10.19,0.08,0.04,-0.12,1721198949513,10000.0,10.446693256720042,0.1496662954709576,10.446693256720042,0.1496662954709576,4.026666666666666,0.0,30.24563333333333,0.0112,5.499603015976092,0.1058300524425836
-0.6,1.43,12.71,-0.07,0.29,-0.1,1721198949523,10000.0,12.804257104572685,0.3146426544510454,12.804257104572685,0.3146426544510454,4.513333333333334,0.0399999999999999,51.41923333333334,0.0470999999999999,7.17072055886529,0.217025344142107
-1.44,1.37,6.67,0.08,-0.08,0.09,1721198949533,10000.0,6.959841952228513,0.1445683229480096,6.959841952228513,0.1445683229480096,2.2,0.03,16.9597,0.0091,4.118215633013891,0.0953939201416945
1.11,5.07,11.79,0.03,0.33,0.03,1721198949543,10000.0,12.88181276063272,0.3327160951922825,12.88181276063272,0.3327160951922825,5.989999999999999,0.13,29.1504,0.03,5.399111037939487,0.1732050807568877
3.33,0.05,9.84,-0.07,0.1,-0.1,1721198949553,10000.0,10.388310738517596,0.157797338380595,10.388310738517596,0.157797338380595,4.406666666666666,-0.0233333333333333,24.83043333333333,0.0116333333333333,4.983014482553039,0.1078579312490895
-1.43,3.74,10.89,0.06,0.0,-0.18,1721198949563,10000.0,11.602784148642948,0.1897366596101027,11.602784148642948,0.1897366596101027,4.4,-0.04,38.2723,0.0156,6.186461023881101,0.1248999599679679
0.3,0.52,8.81,-0.02,0.26,-0.13,1721198949573,10000.0,8.830430340589297,0.2913760456866693,8.830430340589297,0.2913760456866693,3.2100000000000004,0.0366666666666666,23.5321,0.0404333333333333,4.850989589764134,0.2010804150914089
-0.79,0.06,12.74,0.03,0.06,0.01,1721198949583,10000.0,12.764611235756458,0.0678232998312526,12.764611235756458,0.0678232998312526,4.003333333333333,0.0333333333333333,57.42763333333335,0.0006333333333333,7.578102225051688,0.0251661147842358
0.25,-0.99,2.99,0.03,0.09,0.06,1721198949593,10000.0,3.159541105920289,0.1122497216032182,3.159541105920289,0.1122497216032182,0.75,0.06,4.147600000000001,0.0009,2.03656573672445,0.03
1.75,-3.14,18.18,-0.14,0.29,-0.21,1721198949603,10000.0,18.53198586228686,0.3844476557348217,18.53198586228686,0.3844476557348217,5.596666666666667,-0.02,124.73323333333332,0.0733,11.16840334753958,0.2707397274136177
-1.85,-0.25,13.86,0.29,-0.18,-0.24,1721198949613,10000.0,13.985156416715546,0.4172529209005012,13.985156416715546,0.4172529209005012,3.92,-0.0433333333333333,74.74269999999999,0.0842333333333333,8.645386052687293,0.2902297940138698
-4.01,8.0,4.35,0.24,0.17,-0.08,1721198949623,10000.0,9.95000502512436,0.3047950130825634,9.95000502512436,0.3047950130825634,2.78,0.11,37.9087,0.0283,6.157004141626023,0.1682260384126072
0.46,6.21,-2.74,0.04,0.12,0.23,1721198949633,10000.0,6.803183078530226,0.2624880949681337,6.803183078530226,0.2624880949681337,1.3099999999999998,0.13,20.567500000000003,0.0091,4.535140571139995,0.0953939201416945
2.39,-6.04,2.14,-0.57,0.25,0.07,1721198949643,10000.0,6.839100818090051,0.6263385665915839,6.839100818090051,0.6263385665915839,-0.5033333333333333,-0.0833333333333333,23.006633333333337,0.1857333333333333,4.79652304626313,0.4309679029038396
-1.79,-4.41,15.82,-0.29,-0.07,-0.25,1721198949653,10000.0,16.520429776491895,0.3892300091205712,16.520429776491895,0.3892300091205712,3.206666666666667,-0.2033333333333333,121.03823333333334,0.0137333333333333,11.001737741526714,0.1171893055416463
-2.06,-3.15,14.6,0.04,0.13,-0.31,1721198949663,10000.0,15.077337298077536,0.3385262175962151,15.077337298077536,0.3385262175962151,3.1300000000000003,-0.0466666666666666,98.9677,0.0540333333333333,9.948251102580794,0.2324507116214818
-4.3,1.55,10.54,0.09,0.1,-0.01,1721198949673,10000.0,11.488433313554983,0.1349073756323204,11.488433313554983,0.1349073756323204,2.5966666666666662,0.06,55.878033333333335,0.0036999999999999,7.475161090794855,0.0608276253029822
-1.34,-0.38,14.72,-0.06,0.21,0.16,1721198949683,10000.0,14.785749896437448,0.2707397274136176,14.785749896437448,0.2707397274136176,4.333333333333333,0.1033333333333333,81.14253333333333,0.0206333333333333,9.007915038083636,0.1436430761761016
0.71,0.43,16.62,0.19,0.05,0.1,1721198949693,10000.0,16.640715128863906,0.220454076850486,16.640715128863906,0.220454076850486,5.920000000000001,0.1133333333333333,85.8871,0.0050333333333333,9.26752933634418,0.0709459888459758
0.57,5.22,6.87,0.19,0.06,-0.09,1721198949703,10000.0,8.646976350146911,0.2186321110907544,8.646976350146911,0.2186321110907544,4.22,0.0533333333333333,10.6725,0.0196333333333333,3.266879244783927,0.140118997046558
0.17,0.64,10.97,-0.07,0.19,-0.1,1721198949713,10000.0,10.9899681528201,0.2258317958127243,10.9899681528201,0.2258317958127243,3.926666666666667,0.0066666666666666,37.261633333333336,0.0254333333333333,6.104230773269744,0.1594783161854091
-2.26,-0.18,9.92,0.16,-0.02,0.02,1721198949723,10000.0,10.175775154748656,0.1624807680927192,10.175775154748656,0.1624807680927192,2.4933333333333336,0.0533333333333333,42.44813333333333,0.0089333333333333,6.515223199041866,0.0945163125250521
-1.42,6.89,11.45,0.11,0.17,0.12,1721198949733,10000.0,13.438415085120717,0.2353720459187964,13.438415085120717,0.2353720459187964,5.64,0.1333333333333333,42.58109999999999,0.0010333333333333,6.525419526743089,0.0321455025366431
2.6,6.11,5.56,0.01,0.06,0.18,1721198949743,10000.0,8.660583121245358,0.19,8.660583121245358,0.19,4.756666666666667,0.0833333333333333,3.564033333333333,0.0076333333333333,1.8878647550429384,0.087368949480541
3.72,-11.22,6.77,-0.42,0.15,-0.15,1721198949753,10000.0,13.622029951516035,0.4705316142407436,13.622029951516035,0.4705316142407436,-0.2433333333333334,-0.14,92.69103333333332,0.0813,9.627618258600272,0.285131548587665
-2.34,-0.36,19.89,0.05,0.0,-0.39,1721198949763,10000.0,20.03040938173756,0.39319206502675,20.03040938173756,0.39319206502675,5.73,-0.1133333333333333,151.35930000000002,0.0580333333333333,12.302816750646985,0.240901086202062
-4.92,-2.46,-1.04,-0.14,-0.09,-0.03,1721198949773,10000.0,5.598178275117719,0.1691153452528776,5.598178275117719,0.1691153452528776,-2.806666666666666,-0.0866666666666666,3.8537333333333335,0.0030333333333333,1.9630927979424035,0.055075705472861
-4.97,8.03,17.87,0.04,0.24,0.27,1721198949783,10000.0,20.211845536714357,0.363455636907725,20.211845536714357,0.363455636907725,6.976666666666667,0.1833333333333333,131.24853333333334,0.0156333333333333,11.45637522662964,0.1250333288900736
3.33,0.07,3.88,-0.01,-0.01,0.34,1721198949793,10000.0,5.113531069623025,0.3402939905434711,5.113531069623025,0.3402939905434711,2.4266666666666663,0.1066666666666666,4.241033333333334,0.0408333333333333,2.0593769284260066,0.202072594216369
0.94,1.68,9.16,-0.17,0.04,0.08,1721198949803,10000.0,9.360106836997108,0.1920937271229854,9.360106836997108,0.1920937271229854,3.926666666666667,-0.0166666666666666,20.67773333333333,0.0180333333333333,4.547277573816374,0.1342882471898912
2.86,0.79,11.65,-0.1,0.24,-0.23,1721198949813,10000.0,12.021905007110975,0.3471310991541956,12.021905007110975,0.3471310991541956,5.1000000000000005,-0.03,33.2481,0.0589,5.766116544087537,0.2426932219902319
-1.2,1.26,12.42,-0.03,-0.01,-0.15,1721198949823,10000.0,12.54129179949179,0.1532970971675589,12.54129179949179,0.1532970971675589,4.16,-0.0633333333333333,52.6836,0.0057333333333333,7.258346919237189,0.0757187779440036
-1.87,0.5,4.12,0.03,0.02,0.13,1721198949833,10000.0,4.5520654652586,0.1349073756323204,4.5520654652586,0.1349073756323204,0.9166666666666666,0.06,9.100233333333334,0.0037,3.016659300175168,0.0608276253029822
2.03,0.67,12.05,-0.13,0.3,0.08,1721198949843,10000.0,12.238149369900665,0.3366006535941366,12.238149369900665,0.3366006535941366,4.916666666666667,0.0833333333333333,38.625733333333336,0.0462333333333333,6.214960445033688,0.2150193789716018
1.88,-0.85,16.04,-0.06,-0.0,-0.2,1721198949853,10000.0,16.17215199038149,0.208806130178211,16.17215199038149,0.208806130178211,5.69,-0.0866666666666666,82.20509999999999,0.0105333333333333,9.066702818555376,0.1026320287889377
-2.8,1.21,10.55,0.08,-0.08,-0.28,1721198949863,10000.0,10.9821036236233,0.30199337741083,10.9821036236233,0.30199337741083,2.986666666666667,-0.0933333333333333,46.92303333333334,0.0325333333333333,6.85003892932977,0.1803699901129158
-3.5,1.97,10.84,0.03,0.19,-0.01,1721198949873,10000.0,11.560125431845451,0.1926136028425822,11.560125431845451,0.1926136028425822,3.103333333333333,0.0699999999999999,52.37223333333333,0.0112,7.236866264712464,0.1058300524425836
-1.98,-0.81,5.64,0.01,0.02,0.28,1721198949883,10000.0,6.03208919032204,0.2808914381037628,6.03208919032204,0.2808914381037628,0.9499999999999998,0.1033333333333333,16.839299999999994,0.0234333333333333,4.103571615068999,0.1530795000427338
0.51,-0.27,8.02,-0.03,0.14,0.17,1721198949893,10000.0,8.040733797359541,0.2222611077089287,8.040733797359541,0.2222611077089287,2.7533333333333334,0.0933333333333333,20.95543333333333,0.0116333333333333,4.577710490336116,0.1078579312490895
3.43,3.05,11.45,-0.02,0.19,-0.07,1721198949903,10000.0,12.335716436429625,0.203469899493758,12.335716436429625,0.203469899493758,5.976666666666667,0.0333333333333333,22.50413333333333,0.0190333333333333,4.743852161833601,0.1379613472438325
0.18,1.38,11.28,-0.02,-0.07,-0.2,1721198949913,10000.0,11.365526824569107,0.2128379665379276,11.365526824569107,0.2128379665379276,4.28,-0.0966666666666666,37.11,0.0086333333333333,6.091797764207213,0.0929157324317756
-2.41,2.28,12.86,0.07,0.1,-0.06,1721198949923,10000.0,13.281042880737942,0.1360147050873544,13.281042880737942,0.1360147050873544,4.243333333333333,0.0366666666666666,61.18423333333334,0.0072333333333333,7.822035114555121,0.0850490054811538
-0.21,0.23,10.48,0.06,0.12,0.1,1721198949933,10000.0,10.484626841237604,0.1673320053068151,10.484626841237604,0.1673320053068151,3.5,0.0933333333333333,36.5887,0.0009333333333333,6.048859396613547,0.0305505046330389
-0.19,-5.12,9.02,-0.22,0.02,0.15,1721198949943,10000.0,10.373567370967423,0.2670205984563737,10.373567370967423,0.2670205984563737,1.2366666666666664,-0.0166666666666666,51.51143333333333,0.0352333333333333,7.177146601075759,0.1877054430040145
-0.55,5.68,35.82,0.39,0.28,-0.05,1721198949953,10000.0,36.27171487536811,0.4827007354458868,36.27171487536811,0.4827007354458868,13.65,0.2066666666666666,378.33490000000006,0.0524333333333333,19.450832887051394,0.2289832599412746
0.24,-0.77,-5.95,0.46,-0.49,-0.01,1721198949963,10000.0,6.00441504228347,0.6721606950722424,6.00441504228347,0.6721606950722424,-2.16,-0.0133333333333333,11.028100000000002,0.2256333333333333,3.320858322783434,0.4750087718488294
-6.68,10.14,4.13,0.1,0.24,0.08,1721198949973,10000.0,12.825712455844316,0.2720294101747089,12.825712455844316,0.2720294101747089,2.53,0.1399999999999999,72.64810000000001,0.0075999999999999,8.523385477613928,0.0871779788708134
3.48,0.06,2.42,0.02,0.08,0.07,1721198949983,10000.0,4.239150858367746,0.1081665382639196,4.239150858367746,0.1081665382639196,1.9866666666666664,0.0566666666666666,3.0649333333333333,0.0010333333333333,1.7506951000483588,0.0321455025366431
0.21,-0.09,12.93,-0.12,0.12,-0.07,1721198949993,10000.0,12.932018403946076,0.1835755975068582,12.932018403946076,0.1835755975068582,4.35,-0.0233333333333333,55.23479999999999,0.0160333333333333,7.43201184067948,0.1266227994214838
0.54,2.91,8.77,0.25,-0.14,-0.08,1721198950003,10000.0,9.255949438064146,0.2974894956128703,9.255949438064146,0.2974894956128703,4.073333333333333,0.0099999999999999,17.94823333333333,0.0441,4.236535534293715,0.21
-1.18,-0.88,11.2,-0.16,0.25,0.04,1721198950013,10000.0,11.296317984192902,0.2994995826374387,11.296317984192902,0.2994995826374387,3.0466666666666664,0.0433333333333333,49.88013333333332,0.0420333333333333,7.062586872622051,0.205020324195757
-2.36,-0.45,9.93,0.14,-0.16,0.17,1721198950023,10000.0,10.216506252139231,0.272213151776324,10.216506252139231,0.272213151776324,2.373333333333333,0.05,43.73943333333333,0.0333,6.613579464505838,0.1824828759089466
1.8,-2.68,10.63,-0.11,0.34,0.03,1721198950033,10000.0,11.109423927459066,0.3586084215408222,11.109423927459066,0.3586084215408222,3.25,0.0866666666666666,45.8659,0.0530333333333333,6.772436784496405,0.2302896726588783
-0.4,1.93,12.53,0.16,-0.15,0.02,1721198950043,10000.0,12.684076631745803,0.2202271554554524,12.684076631745803,0.2202271554554524,4.6866666666666665,0.01,47.49563333333333,0.0241,6.891707577468252,0.1552417469626002
-0.67,3.51,9.5,0.0,0.17,-0.02,1721198950053,10000.0,10.149827584742512,0.1711724276862369,10.149827584742512,0.1711724276862369,4.113333333333333,0.05,26.130233333333333,0.0109,5.111773990830711,0.1044030650891055
-1.24,1.87,7.54,0.11,-0.03,0.1,1721198950063,10000.0,7.866771891951616,0.151657508881031,7.866771891951616,0.151657508881031,2.723333333333333,0.06,19.81823333333333,0.0061,4.451767439268737,0.0781024967590665
-0.5,-2.99,6.96,-0.23,0.09,0.15,1721198950073,10000.0,7.591554518015398,0.2889636655359978,7.591554518015398,0.2889636655359978,1.1566666666666665,0.0033333333333333,26.80903333333333,0.0417333333333333,5.177744038993559,0.2042873792805941
0.26,-1.06,14.16,-0.03,-0.0,0.12,1721198950083,10000.0,14.201999859174764,0.1236931687685298,14.201999859174764,0.1236931687685298,4.453333333333333,0.03,71.10013333333333,0.0063,8.432089499841267,0.0793725393319377
1.53,0.43,8.64,0.05,0.06,-0.01,1721198950093,10000.0,8.78495304483752,0.0787400787401181,8.78495304483752,0.0787400787401181,3.5333333333333337,0.0333333333333333,19.86103333333334,0.0014333333333333,4.456571926193196,0.0378593889720018
1.02,0.74,10.54,-0.07,0.05,-0.01,1721198950103,10000.0,10.615064766641792,0.0866025403784438,10.615064766641792,0.0866025403784438,4.1,-0.01,31.124799999999997,0.0036,5.578960476647956,0.06
-0.85,-0.61,5.26,-0.0,-0.06,-0.03,1721198950113,10000.0,5.363040182583009,0.0670820393249937,5.363040182583009,0.0670820393249937,1.2666666666666666,-0.03,11.974433333333334,0.0009,3.4604094170102666,0.03
-1.53,2.68,13.01,-0.17,0.27,-0.11,1721198950123,10000.0,13.37099098795598,0.3374907406137241,13.37099098795598,0.3374907406137241,4.72,-0.0033333333333333,55.97409999999999,0.0569333333333333,7.48158405686924,0.2386070689089771
-1.79,-2.3,10.76,0.06,-0.19,-0.01,1721198950133,10000.0,11.1477217403378,0.1994993734326,11.1477217403378,0.1994993734326,2.223333333333333,-0.0466666666666666,54.72103333333334,0.0166333333333333,7.397366648567133,0.128970280814354
-2.49,0.06,11.48,-0.1,0.18,0.14,1721198950143,10000.0,11.74708900111002,0.2489979919597746,11.74708900111002,0.2489979919597746,3.016666666666667,0.0733333333333333,55.34663333333334,0.0229333333333333,7.439531795303608,0.1514375558880073
0.44,-1.43,9.57,0.09,-0.04,0.26,1721198950153,10000.0,9.68624798361058,0.2780287754891569,9.68624798361058,0.2780287754891569,2.86,0.1033333333333333,34.642300000000006,0.0226333333333333,5.885770977535569,0.1504437879519568
0.58,2.39,10.89,-0.03,0.06,0.06,1721198950163,10000.0,11.1642554610686,0.09,11.1642554610686,0.09,4.62,0.03,30.303700000000003,0.0026999999999999,5.504879653543754,0.0519615242270663
2.4,2.33,12.27,0.06,0.03,-0.04,1721198950173,10000.0,12.717774962626128,0.0781024967590665,12.717774962626128,0.0781024967590665,5.666666666666667,0.0166666666666666,32.70423333333333,0.0026333333333333,5.718761520935571,0.0513160143944688
0.07,1.06,7.66,-0.01,-0.07,-0.03,1721198950183,10000.0,7.733311063186325,0.076811457478686,7.733311063186325,0.076811457478686,2.93,-0.0366666666666666,17.024700000000003,0.0009333333333333,4.126099853372431,0.0305505046330389
-1.23,3.82,12.61,0.03,0.19,-0.08,1721198950193,10000.0,13.233193114286513,0.2083266665599966,13.233193114286513,0.2083266665599966,5.066666666666666,0.0466666666666666,49.05203333333333,0.0184333333333333,7.003715680503694,0.1357694123627753
-1.06,-2.23,6.27,-0.15,-0.06,0.06,1721198950203,10000.0,6.738649716374935,0.1723368793961408,6.738649716374935,0.1723368793961408,0.9933333333333332,-0.0499999999999999,21.22463333333333,0.0110999999999999,4.607020005744856,0.1053565375285273
-2.56,2.61,15.18,0.05,0.02,0.12,1721198950213,10000.0,15.614035352848411,0.131529464379659,15.614035352848411,0.131529464379659,5.076666666666667,0.0633333333333333,83.24023333333332,0.0026333333333333,9.123608569712609,0.0513160143944688
2.27,1.85,6.16,-0.01,0.09,0.1,1721198950223,10000.0,6.820630469392108,0.1349073756323204,6.820630469392108,0.1349073756323204,3.426666666666667,0.06,5.647433333333334,0.0036999999999999,2.3764329010795437,0.0608276253029822
0.71,3.31,15.02,0.06,-0.02,0.01,1721198950233,10000.0,15.3967723890431,0.0640312423743284,15.3967723890431,0.0640312423743284,6.346666666666667,0.0166666666666666,58.11003333333332,0.0016333333333333,7.622993725127506,0.0404145188432738
0.58,-0.53,5.52,-0.01,0.06,-0.05,1721198950243,10000.0,5.575634493042025,0.0787400787401181,5.575634493042025,0.0787400787401181,1.8566666666666665,-2.312964634635743e-18,10.373033333333332,0.0031,3.220719381339103,0.0556776436283002
-1.33,1.43,13.91,0.04,0.07,-0.0,1721198950253,10000.0,14.046419472591582,0.0806225774829855,14.046419472591582,0.0806225774829855,4.67,0.0366666666666666,65.9376,0.0012333333333333,8.120197041944241,0.0351188458428424
-0.43,2.34,8.24,-0.03,0.1,0.11,1721198950263,10000.0,8.576601891192105,0.151657508881031,8.576601891192105,0.151657508881031,3.3833333333333333,0.06,19.608633333333337,0.0061,4.428163652501264,0.0781024967590665
0.05,0.18,11.34,-0.0,-0.04,0.08,1721198950273,10000.0,11.341538696314537,0.0894427190999915,11.341538696314537,0.0894427190999915,3.856666666666667,0.0133333333333333,42.00443333333333,0.0037333333333333,6.481082728474721,0.0611010092660778
0.3,3.26,8.05,0.08,0.03,-0.02,1721198950283,10000.0,8.69023014654963,0.0877496438739212,8.69023014654963,0.0877496438739212,3.87,0.03,15.294700000000006,0.0025,3.910843898700127,0.05
2.27,0.11,13.23,-0.02,0.11,-0.09,1721198950293,10000.0,13.42378113647567,0.1435270009440732,13.42378113647567,0.1435270009440732,5.203333333333333,0.0,49.48693333333334,0.0103,7.034694970880638,0.1014889156509221
-1.09,2.81,9.47,0.2,-0.08,-0.02,1721198950303,10000.0,9.938063191588189,0.2163330765278393,9.938063191588189,0.2163330765278393,3.73,0.0333333333333333,28.5132,0.0217333333333333,5.339775276170338,0.1474222959166398
0.24,-1.03,8.69,-0.07,0.22,0.05,1721198950313,10000.0,8.754119030490731,0.2362202362203543,8.754119030490731,0.2362202362203543,2.6333333333333333,0.0666666666666666,27.91563333333333,0.0212333333333333,5.283524707364709,0.1457166199626293
-1.25,2.64,13.5,0.19,-0.06,-0.02,1721198950323,10000.0,13.812389366072766,0.2002498439450078,13.812389366072766,0.2002498439450078,4.963333333333334,0.0366666666666666,58.43903333333333,0.0180333333333333,7.644542715776616,0.1342882471898912
0.38,2.02,7.24,0.01,0.13,-0.01,1721198950333,10000.0,7.526114535402714,0.1307669683062202,7.526114535402714,0.1307669683062202,3.2133333333333334,0.0433333333333333,12.832933333333337,0.0057333333333333,3.582308380546451,0.0757187779440036
-0.47,1.68,11.1,0.08,-0.02,0.02,1721198950343,10000.0,11.23624937423516,0.0848528137423857,11.23624937423516,0.0848528137423857,4.103333333333333,0.0266666666666666,37.87063333333333,0.0025333333333333,6.15391203490376,0.0503322295684716
-0.48,-0.44,11.12,0.07,0.07,-0.09,1721198950353,10000.0,11.139048433326789,0.1337908816025965,11.139048433326789,0.1337908816025965,3.4,0.0166666666666666,44.69919999999999,0.0085333333333333,6.685746031670661,0.0923760430703401
-1.13,0.19,9.43,0.12,0.0,-0.06,1721198950363,10000.0,9.499363136547627,0.1341640786499874,9.499363136547627,0.1341640786499874,2.83,0.02,33.105599999999995,0.0084,5.7537466054736885,0.0916515138991168
-1.1,-1.04,6.13,-0.01,0.06,0.11,1721198950373,10000.0,6.31415077425302,0.1256980508997653,6.31415077425302,0.1256980508997653,1.3299999999999998,0.0533333333333333,17.2809,0.0036333333333333,4.157030189931269,0.060277137733417
-0.27,2.2,13.54,0.06,0.18,0.08,1721198950383,10000.0,13.720222301406052,0.20591260281974,13.720222301406052,0.20591260281974,5.156666666666666,0.1066666666666666,54.23543333333332,0.0041333333333333,7.364471015173684,0.0642910050732863
0.98,-0.25,5.77,0.06,-0.12,0.05,1721198950393,10000.0,5.857968931293508,0.1431782106327635,5.857968931293508,0.1431782106327635,2.1666666666666665,-0.0033333333333333,10.116233333333332,0.0102333333333333,3.180602668258538,0.1011599393699567
-0.24,3.39,11.72,0.13,0.1,-0.05,1721198950403,10000.0,12.2027906644341,0.1714642819948224,12.2027906644341,0.1714642819948224,4.956666666666667,0.06,37.60123333333334,0.0093,6.131984453122279,0.0964365076099295
1.48,-2.19,10.94,-0.03,0.13,-0.09,1721198950413,10000.0,11.254781206225202,0.1609347693943108,11.254781206225202,0.1609347693943108,3.41,0.0033333333333333,45.8929,0.0129333333333333,6.7744298653097,0.1137248140615465
-3.33,4.16,15.57,0.25,-0.12,0.01,1721198950423,10000.0,16.45659138460939,0.2774887385102321,16.45659138460939,0.2774887385102321,5.466666666666666,0.0466666666666666,90.58303333333336,0.0352333333333333,9.517511929771002,0.1877054430040144
-0.56,3.04,5.32,0.12,0.15,0.12,1721198950433,10000.0,6.15285299678125,0.2264950330581225,6.15285299678125,0.2264950330581225,2.6,0.13,8.788800000000002,0.0003,2.964591034190045,0.0173205080756887
0.61,1.22,13.06,-0.0,0.06,0.12,1721198950443,10000.0,13.131035755034713,0.1341640786499874,13.131035755034713,0.1341640786499874,4.963333333333334,0.06,49.26003333333335,0.0036,7.01854923280683,0.06
0.99,-1.93,8.75,0.05,-0.0,-0.08,1721198950453,10000.0,9.01484886173917,0.094339811320566,9.01484886173917,0.094339811320566,2.603333333333333,-0.01,30.46773333333333,0.0043,5.519758448821229,0.06557438524302
0.11,-2.18,12.1,-0.01,0.1,-0.15,1721198950463,10000.0,12.295303981602082,0.1805547008526778,12.295303981602082,0.1805547008526778,3.3433333333333333,-0.0199999999999999,58.82043333333333,0.0157,7.669448046198196,0.1252996408614166
-2.49,4.6,8.4,0.26,-0.05,-0.03,1721198950473,10000.0,9.895458554306616,0.2664582518894846,9.895458554306616,0.2664582518894846,3.5033333333333334,0.06,30.55003333333334,0.0301,5.5272084575609535,0.1734935157289747
0.02,0.09,7.82,-0.07,0.24,0.09,1721198950483,10000.0,7.82054345937672,0.2657066051117284,7.82054345937672,0.2657066051117284,2.643333333333333,0.0866666666666666,20.099633333333337,0.0240333333333333,4.483261461629618,0.1550268793897798
-0.9,4.62,9.97,0.18,-0.11,0.15,1721198950493,10000.0,11.025212016102005,0.2588435821108957,11.025212016102005,0.2588435821108957,4.5633333333333335,0.0733333333333333,29.541633333333337,0.0254333333333333,5.4352215532886365,0.1594783161854091
2.5,-2.03,7.16,-0.21,0.23,-0.07,1721198950503,10000.0,7.85089166910358,0.3192177939902473,7.85089166910358,0.3192177939902473,2.543333333333333,-0.0166666666666666,21.115433333333332,0.0505333333333333,4.595153243726844,0.2247962040011648
-1.22,2.41,15.36,0.12,-0.14,-0.12,1721198950513,10000.0,15.595707742837453,0.22,15.595707742837453,0.22,5.516666666666667,-0.0466666666666666,75.96263333333333,0.0209333333333333,8.715654498276841,0.1446835627614047
-0.46,0.87,6.03,-0.04,0.13,0.02,1721198950523,10000.0,6.109779046741379,0.1374772708486752,6.109779046741379,0.1374772708486752,2.146666666666667,0.0366666666666666,11.752433333333334,0.0074333333333333,3.4281822199721725,0.086216781042517
-1.16,0.35,11.29,-0.02,-0.02,0.16,1721198950533,10000.0,11.354831570745556,0.1624807680927192,11.354831570745556,0.1624807680927192,3.4933333333333327,0.04,46.16103333333333,0.0108,6.794191146364174,0.1039230484541326
1.05,-0.86,10.53,-0.06,0.09,-0.02,1721198950543,10000.0,10.617108834329615,0.1099999999999999,10.617108834329615,0.1099999999999999,3.573333333333333,0.0033333333333333,37.20843333333333,0.0060333333333333,6.0998715833477455,0.0776745346515402
0.43,-0.14,14.74,0.0,0.0,-0.12,1721198950553,10000.0,14.74693527482914,0.12,14.74693527482914,0.12,5.01,-0.04,71.08590000000001,0.0047999999999999,8.43124545959848,0.069282032302755
-1.69,3.24,10.58,0.14,-0.01,-0.06,1721198950563,10000.0,11.19330603530521,0.1526433752247374,11.19330603530521,0.1526433752247374,4.043333333333334,0.0233333333333333,38.12223333333334,0.0108333333333333,6.174320475431554,0.1040832999733066
-0.84,2.1,8.83,0.0,0.14,0.05,1721198950573,10000.0,9.11506993939158,0.148660687473185,9.11506993939158,0.148660687473185,3.3633333333333333,0.0633333333333333,24.57423333333333,0.0050333333333333,4.9572404958135055,0.0709459888459758
-0.51,-0.81,3.63,0.0,-0.11,0.18,1721198950583,10000.0,3.7540777828915584,0.2109502310972898,3.7540777828915584,0.2109502310972898,0.7699999999999999,0.0233333333333333,6.1572,0.0214333333333333,2.4813705890092272,0.146401275039985
1.19,2.99,8.93,-0.09,0.24,0.01,1721198950593,10000.0,9.492159922799448,0.2565151067676132,9.492159922799448,0.2565151067676132,4.37,0.0533333333333333,16.4052,0.0286333333333333,4.0503333196170415,0.1692138686199607
1.81,-0.55,7.89,-0.13,-0.08,-0.14,1721198950603,10000.0,8.113612019316674,0.2071231517720798,8.113612019316674,0.2071231517720798,3.0500000000000003,-0.1166666666666666,18.961600000000004,0.0010333333333333,4.354491933624405,0.0321455025366431
-2.51,1.36,11.63,-0.06,-0.1,-0.1,1721198950613,10000.0,11.975249475480668,0.1536229149573721,11.975249475480668,0.1536229149573721,3.4933333333333336,-0.0866666666666666,53.39823333333334,0.0005333333333333,7.30740948170645,0.023094010767585
-0.46,1.01,10.52,-0.02,0.2,0.01,1721198950623,10000.0,10.57837889281718,0.2012461179749811,10.57837889281718,0.2012461179749811,3.69,0.0633333333333333,35.5269,0.0142333333333333,5.960444614288434,0.1193035344544885
-0.75,-1.01,8.34,-0.21,-0.04,0.05,1721198950633,10000.0,8.434346447710102,0.2195449840010014,8.434346447710102,0.2195449840010014,2.1933333333333334,-0.0666666666666666,28.35303333333333,0.0174333333333333,5.3247566454565165,0.1320353488022557
-0.84,-1.26,12.04,-0.05,-0.14,-0.04,1721198950648,15000.0,12.134858878454253,0.1539480431834065,12.134858878454253,0.1539480431834065,3.313333333333333,-0.0766666666666666,57.16013333333333,0.0030333333333333,7.560432086417636,0.055075705472861
1.56,-2.85,13.89,-0.04,0.06,-0.09,1721198950652,4000.0,14.264929021905436,0.1153256259467079,14.264929021905436,0.1153256259467079,4.2,-0.0233333333333333,75.28410000000001,0.0058333333333333,8.676641055154928,0.0763762615825973
-2.68,3.43,13.17,0.15,-0.05,-0.04,1721198950662,10000.0,13.870695728765735,0.1630950643030009,13.870695728765735,0.1630950643030009,4.64,0.0199999999999999,63.903700000000015,0.0127,7.993978984210555,0.1126942766958464
-0.22,1.51,6.88,0.03,0.12,0.09,1721198950672,10000.0,7.04719092972512,0.1529705854077835,7.04719092972512,0.1529705854077835,2.723333333333333,0.08,13.706633333333333,0.0021,3.702247065409511,0.0458257569495584
0.42,2.89,6.44,0.05,-0.07,0.09,1721198950682,10000.0,7.071216302730387,0.1244989959798873,7.071216302730387,0.1244989959798873,3.25,0.0233333333333333,9.1573,0.0069333333333333,3.026103104654565,0.0832666399786453
1.16,-0.14,8.51,-0.18,0.16,-0.02,1721198950692,10000.0,8.589837018244292,0.2416609194718914,8.589837018244292,0.2416609194718914,3.1766666666666663,-0.0133333333333333,21.75583333333333,0.0289333333333333,4.664314883595804,0.1700980109623076
-0.33,0.66,11.12,0.03,-0.07,-0.04,1721198950702,10000.0,11.144456020820396,0.0860232526704262,11.144456020820396,0.0860232526704262,3.8166666666666655,-0.0266666666666666,40.24903333333333,0.0026333333333333,6.344212585761398,0.0513160143944688
-0.97,2.93,8.83,-0.09,0.12,-0.05,1721198950712,10000.0,9.353860165728372,0.1581138830084189,9.353860165728372,0.1581138830084189,3.596666666666667,-0.0066666666666666,24.343333333333334,0.0124333333333333,4.933896364267629,0.1115048578911848
-0.45,2.98,13.33,0.03,-0.01,0.05,1721198950722,10000.0,13.666447965729793,0.0591607978309961,13.666447965729793,0.0591607978309961,5.286666666666666,0.0233333333333333,51.46263333333333,0.0009333333333333,7.17374611575663,0.0305505046330389
0.86,-1.37,10.67,-0.14,0.09,0.07,1721198950732,10000.0,10.791913639387596,0.1805547008526778,10.791913639387596,0.1805547008526778,3.3866666666666667,0.0066666666666666,41.02843333333333,0.0162333333333333,6.405344122944007,0.1274100990241093
-0.75,0.8,13.58,0.05,0.0,-0.02,1721198950742,10000.0,13.6242027289673,0.053851648071345,13.6242027289673,0.053851648071345,4.543333333333334,0.01,61.84663333333333,0.0013,7.864263050873446,0.0360555127546398
-0.45,2.83,11.79,0.04,0.11,-0.09,1721198950752,10000.0,12.133239468501394,0.147648230602334,12.133239468501394,0.147648230602334,4.723333333333333,0.02,40.14293333333333,0.0103,6.335845115952041,0.1014889156509221
-1.41,3.0,9.2,0.11,-0.08,0.02,1721198950762,10000.0,9.778962112617064,0.1374772708486752,9.778962112617064,0.1374772708486752,3.5966666666666662,0.0166666666666666,28.41003333333333,0.0090333333333333,5.330106315387464,0.0950438495292216
-0.42,-0.18,7.65,-0.07,0.05,0.09,1721198950772,10000.0,7.663634907796691,0.1244989959798873,7.663634907796691,0.1244989959798873,2.35,0.0233333333333333,21.081900000000005,0.0069333333333333,4.591503021887278,0.0832666399786453
0.7,1.74,13.4,-0.02,0.08,-0.03,1721198950782,10000.0,13.530617133006166,0.0877496438739212,13.530617133006166,0.0877496438739212,5.28,0.01,49.72120000000001,0.0037,7.05132611641243,0.0608276253029822
0.46,0.84,8.67,-0.03,-0.01,-0.09,1721198950792,10000.0,8.722734662936848,0.0953939201416945,8.722734662936848,0.0953939201416945,3.3233333333333337,-0.0433333333333333,21.47623333333333,0.0017333333333333,4.6342457135259165,0.0416333199893226
-1.78,2.65,10.35,0.0,0.04,0.01,1721198950802,10000.0,10.8311310582044,0.0412310562561766,10.8311310582044,0.0412310562561766,3.74,0.0166666666666666,37.67529999999999,0.0004333333333333,6.138020853662848,0.0208166599946613
-0.47,0.72,5.97,-0.11,0.05,0.09,1721198950812,10000.0,6.031600119371309,0.1506651917331936,6.031600119371309,0.1506651917331936,2.0733333333333333,0.01,11.742033333333332,0.0112,3.4266650453952066,0.1058300524425836
0.32,-0.46,13.76,-0.14,0.06,0.01,1721198950822,10000.0,13.771405157063676,0.1526433752247374,13.771405157063676,0.1526433752247374,4.54,-0.0233333333333333,63.90839999999999,0.0108333333333333,7.994272950056183,0.1040832999733066
0.33,-0.87,8.09,-0.04,-0.05,-0.07,1721198950832,10000.0,8.143334697775844,0.0948683298050513,8.143334697775844,0.0948683298050513,2.5166666666666666,-0.0533333333333333,23.65653333333333,0.0002333333333333,4.863798241429565,0.0152752523165194
-0.57,0.75,11.72,-0.12,0.09,-0.09,1721198950842,10000.0,11.75779741278102,0.174928556845359,11.75779741278102,0.174928556845359,3.966666666666667,-0.04,45.52123333333334,0.0129,6.746942517417303,0.1135781669160054
-0.82,1.14,14.49,0.0,0.04,-0.06,1721198950852,10000.0,14.55788789625748,0.0721110255092797,14.55788789625748,0.0721110255092797,4.9366666666666665,-0.0066666666666666,69.41003333333335,0.0025333333333333,8.33126841083237,0.0503322295684716
-1.7,1.17,8.97,0.08,-0.05,0.06,1721198950862,10000.0,9.20433593476466,0.1118033988749894,9.20433593476466,0.1118033988749894,2.813333333333334,0.03,30.48763333333333,0.0049,5.521560769685808,0.07
-0.98,3.8,9.07,0.01,0.06,0.09,1721198950872,10000.0,9.882575575223294,0.1086278049120021,9.882575575223294,0.1086278049120021,3.963333333333333,0.0533333333333333,25.270633333333336,0.0016333333333333,5.026990484706863,0.0404145188432738
1.77,-2.11,6.1,-0.2,-0.01,0.03,1721198950882,10000.0,6.692906692910039,0.2024845673131659,6.692906692910039,0.2024845673131659,1.92,-0.06,16.8679,0.0151,4.107054905890594,0.122882057274445
0.08,0.67,14.34,-0.07,0.01,-0.05,1721198950892,10000.0,14.355866396703474,0.0866025403784438,14.355866396703474,0.0866025403784438,5.03,-0.0366666666666666,65.0941,0.0017333333333333,8.06809147196535,0.0416333199893226
-0.6,1.43,8.48,0.05,0.01,-0.08,1721198950902,10000.0,8.620632227394927,0.0948683298050513,8.620632227394927,0.0948683298050513,3.103333333333333,-0.0066666666666666,22.71163333333334,0.0044333333333333,4.765672390474752,0.0665832811847939
-2.15,3.89,11.41,-0.01,0.01,0.03,1721198950912,10000.0,12.245109227769264,0.033166247903554,12.245109227769264,0.033166247903554,4.383333333333334,0.01,46.15093333333333,0.0003999999999999,6.793447823699932,0.02
-0.47,-0.87,5.25,-0.12,-0.03,0.14,1721198950922,10000.0,5.342312233480929,0.186815416922694,5.342312233480929,0.186815416922694,1.3033333333333337,-0.0033333333333333,11.722133333333332,0.0174333333333333,3.42376011620752,0.1320353488022557
-0.36,-1.82,12.47,-0.2,0.07,0.05,1721198950932,10000.0,12.607255847328554,0.2177154105707724,12.607255847328554,0.2177154105707724,3.43,-0.0266666666666666,61.824100000000016,0.0226333333333333,7.862830279231519,0.1504437879519568
0.2,2.17,14.99,0.09,0.02,-0.05,1721198950942,10000.0,15.14757406319573,0.1048808848170151,15.14757406319573,0.1048808848170151,5.786666666666666,0.02,64.49623333333332,0.0049,8.03095469625706,0.0699999999999999
-0.23,0.99,7.57,0.02,-0.08,0.07,1721198950952,10000.0,7.637925110918541,0.1081665382639196,7.637925110918541,0.1081665382639196,2.776666666666667,0.0033333333333333,17.60413333333333,0.0058333333333333,4.195727986098876,0.0763762615825973
-0.46,3.35,7.73,0.03,-0.04,0.08,1721198950962,10000.0,8.437238884848528,0.094339811320566,8.437238884848528,0.094339811320566,3.5400000000000005,0.0233333333333333,16.796100000000003,0.0036333333333333,4.0983045274845065,0.060277137733417
2.23,-0.38,12.96,-0.11,0.13,0.03,1721198950972,10000.0,13.155945424027877,0.1729161646579058,13.155945424027877,0.1729161646579058,4.9366666666666665,0.0166666666666666,49.98343333333333,0.0145333333333333,7.069896274580931,0.1205542754668341
-0.64,1.36,14.46,0.09,-0.11,-0.05,1721198950982,10000.0,14.537909065611878,0.1506651917331936,14.537909065611878,0.1506651917331936,5.0600000000000005,-0.0233333333333333,67.27000000000001,0.0105333333333333,8.201829064300231,0.1026320287889376
-1.54,1.47,9.77,0.04,0.02,-0.03,1721198950992,10000.0,9.999269973353051,0.053851648071345,9.999269973353051,0.053851648071345,3.233333333333333,0.01,34.311033333333334,0.0013,5.857562063976219,0.0360555127546398
-1.7,2.34,9.69,0.14,-0.09,0.1,1721198951002,10000.0,10.112452719296146,0.194164878389476,10.112452719296146,0.194164878389476,3.4433333333333334,0.05,33.34603333333333,0.0151,5.774602439418088,0.122882057274445
0.55,2.92,6.98,0.09,0.1,0.22,1721198951012,10000.0,7.586125493293662,0.2578759391645525,7.586125493293662,0.2578759391645525,3.483333333333333,0.1366666666666667,10.574233333333336,0.0052333333333333,3.251804627177552,0.0723417813807023
2.5,-0.32,13.67,-0.07,0.11,0.06,1721198951022,10000.0,13.900406468877089,0.1435270009440732,13.900406468877089,0.1435270009440732,5.283333333333333,0.0333333333333333,54.740233333333336,0.0086333333333333,7.398664293866383,0.0929157324317756
-0.27,2.03,9.45,0.15,-0.2,-0.07,1721198951032,10000.0,9.66934847856876,0.2596150997149434,9.66934847856876,0.2596150997149434,3.7366666666666655,-0.04,25.80413333333333,0.0313,5.079776897988073,0.1769180601295413
-0.52,2.61,12.84,-0.0,0.2,-0.15,1721198951042,10000.0,13.11289823036845,0.25,13.11289823036845,0.25,4.976666666666667,0.0166666666666666,48.82323333333333,0.0308333333333333,6.987362401745979,0.1755942292142123
-1.91,3.31,10.22,0.23,-0.15,0.07,1721198951052,10000.0,10.9111227653253,0.2833725463060951,10.9111227653253,0.2833725463060951,3.8733333333333335,0.05,37.02223333333333,0.0364,6.0845898245759615,0.1907878402833891
-0.47,-0.12,6.23,-0.05,0.08,0.19,1721198951062,10000.0,6.248855895281952,0.2121320343559642,6.248855895281952,0.2121320343559642,1.88,0.0733333333333333,14.222500000000002,0.0144333333333333,3.771272994626616,0.1201388086062673
1.52,1.55,14.52,0.08,0.09,0.06,1721198951072,10000.0,14.681392985680889,0.1345362404707371,14.681392985680889,0.1345362404707371,5.863333333333333,0.0766666666666666,56.20363333333333,0.0002333333333333,7.496908251628356,0.0152752523165194
1.12,-0.96,6.46,-0.04,-0.05,-0.19,1721198951082,10000.0,6.626281008227767,0.2004993765576342,6.626281008227767,0.2004993765576342,2.2066666666666666,-0.0933333333333333,14.649733333333335,0.0070333333333333,3.8274970063127856,0.0838649708360608
-3.5,3.04,12.78,0.16,-0.12,-0.12,1721198951092,10000.0,13.594851966829207,0.233238075793812,13.594851966829207,0.233238075793812,4.1066666666666665,-0.0266666666666666,67.11293333333332,0.0261333333333333,8.192248368630757,0.1616580753730952
-1.02,1.91,5.54,0.02,0.07,0.06,1721198951102,10000.0,5.94811734921227,0.094339811320566,5.94811734921227,0.094339811320566,2.143333333333333,0.05,10.799233333333332,0.0007,3.2862186983421133,0.0264575131106459
-0.13,1.81,10.99,-0.03,-0.03,0.18,1721198951112,10000.0,11.138810528956853,0.1849324200890693,11.138810528956853,0.1849324200890693,4.223333333333334,0.04,35.281733333333335,0.0146999999999999,5.939842871097967,0.1212435565298214
1.27,-1.03,10.42,-0.09,0.07,-0.01,1721198951122,10000.0,10.547521035769494,0.1144552314225959,10.547521035769494,0.1144552314225959,3.553333333333333,-0.0099999999999999,36.685833333333335,0.0064,6.056883136839717,0.08
-0.23,-1.49,16.81,0.04,-0.01,-0.11,1721198951132,10000.0,16.877473152104255,0.1174734012447073,16.877473152104255,0.1174734012447073,5.029999999999999,-0.0266666666666666,104.4732,0.0058333333333333,10.221213235227998,0.0763762615825973
-1.98,0.3,7.92,0.19,-0.11,-0.02,1721198951142,10000.0,8.16925945236164,0.220454076850486,8.16925945236164,0.220454076850486,2.08,0.02,26.8788,0.0237,5.184476829922186,0.1539480431834065
-0.64,2.87,6.21,0.05,0.08,0.16,1721198951152,10000.0,6.870997016445284,0.1857417562100671,6.870997016445284,0.1857417562100671,2.813333333333333,0.0966666666666666,11.733033333333337,0.0032333333333333,3.425351563465177,0.0568624070307732
1.34,2.6,6.79,0.01,0.02,0.12,1721198951162,10000.0,7.39321986687803,0.122065556157337,7.39321986687803,0.122065556157337,3.5766666666666667,0.0499999999999999,8.141033333333333,0.0037,2.8532496093635644,0.0608276253029822
1.38,-0.51,9.06,-0.12,-0.03,-0.1,1721198951172,10000.0,9.178676375164342,0.1590597372058686,9.178676375164342,0.1590597372058686,3.31,-0.0833333333333333,25.6899,0.0022333333333333,5.068520494187628,0.047258156262526
-1.24,-2.17,12.75,-0.02,-0.06,-0.19,1721198951182,10000.0,12.992651769365636,0.2002498439450078,12.992651769365636,0.2002498439450078,3.1133333333333333,-0.09,69.86523333333334,0.0079,8.358542536431417,0.0888819441731559
-3.2,-1.47,13.3,0.09,-0.01,-0.02,1721198951192,10000.0,13.758302947674906,0.092736184954957,13.758302947674906,0.092736184954957,2.876666666666667,0.02,82.23263333333334,0.0036999999999999,9.068221067736127,0.0608276253029821
-2.12,2.23,7.29,0.13,-0.05,0.27,1721198951202,10000.0,7.912736568343471,0.3038091506192663,7.912736568343471,0.3038091506192663,2.466666666666667,0.1166666666666666,22.179033333333333,0.0257333333333333,4.709462106582167,0.1604161255402128
2.02,3.31,9.39,-0.02,0.07,0.25,1721198951212,10000.0,10.159163351378892,0.2603843313258307,10.159163351378892,0.2603843313258307,4.906666666666667,0.0999999999999999,15.491233333333334,0.0189,3.935890411753525,0.1374772708486752
2.23,4.1,10.58,0.04,-0.09,-0.12,1721198951222,10000.0,11.563706153305697,0.1552417469626002,11.563706153305697,0.1552417469626002,5.636666666666667,-0.0566666666666666,19.201633333333334,0.0072333333333333,4.38196683389244,0.0850490054811538
0.12,-1.1,9.62,-0.11,-0.03,-0.23,1721198951232,10000.0,9.683429144678035,0.2567099530598687,9.683429144678035,0.2567099530598687,2.8799999999999994,-0.1233333333333333,34.4428,0.0101333333333333,5.86879885496172,0.1006644591369433
-3.46,-1.69,12.78,-0.01,-0.08,0.05,1721198951242,10000.0,13.347512876937037,0.0948683298050513,13.347512876937037,0.0948683298050513,2.543333333333333,-0.0133333333333333,79.37523333333333,0.0042333333333333,8.909277935575549,0.0650640709864771
-2.52,-2.3,8.72,-0.06,-0.0,0.21,1721198951252,10000.0,9.36369585153213,0.2184032966784155,9.36369585153213,0.2184032966784155,1.3,0.0499999999999999,41.3044,0.0201,6.426849928230782,0.1417744687875782
0.49,0.61,12.78,0.04,-0.04,0.28,1721198951262,10000.0,12.80392908446466,0.285657137141714,12.80392908446466,0.285657137141714,4.626666666666666,0.0933333333333333,49.86123333333332,0.0277333333333333,7.06124870921095,0.1665332799572906
3.46,4.06,9.06,0.09,-0.02,0.03,1721198951272,10000.0,10.513743386634468,0.0969535971483265,10.513743386634468,0.0969535971483265,5.526666666666666,0.0333333333333333,9.453333333333337,0.0030333333333333,3.0746273486933884,0.055075705472861
1.81,0.29,8.74,-0.1,-0.09,-0.22,1721198951282,10000.0,8.930162372543963,0.2578759391645525,8.930162372543963,0.2578759391645525,3.613333333333333,-0.1366666666666667,20.28963333333333,0.0052333333333333,4.504401551075718,0.0723417813807023
-2.89,3.11,16.93,0.12,-0.09,-0.24,1721198951292,10000.0,17.454200067605505,0.2830194339616981,17.454200067605505,0.2830194339616981,5.716666666666666,-0.0699999999999999,103.30413333333334,0.0326999999999999,10.163864094591847,0.1808314132002512
-2.16,1.72,4.35,0.14,-0.06,0.13,1721198951302,10000.0,5.152329570204142,0.2002498439450078,5.152329570204142,0.2002498439450078,1.303333333333333,0.07,10.725233333333332,0.0127,3.274940203016436,0.1126942766958464
0.05,1.65,12.12,-0.15,0.09,0.24,1721198951312,10000.0,12.231900915229817,0.2969848480983499,12.231900915229817,0.2969848480983499,4.6066666666666665,0.06,42.97763333333333,0.0387,6.55573286012581,0.19672315572906
2.25,0.46,8.3,0.11,-0.18,0.08,1721198951322,10000.0,8.611858103800829,0.2256102834535695,8.611858103800829,0.2256102834535695,3.67,0.0033333333333333,16.878700000000006,0.0254333333333333,4.108369506264013,0.1594783161854091
1.86,0.56,13.15,-0.11,0.1,-0.23,1721198951332,10000.0,13.292693481759068,0.2738612787525831,13.292693481759068,0.2738612787525831,5.19,-0.08,47.94370000000001,0.0279,6.924138935636691,0.1670329308849006
-2.05,1.48,11.43,0.19,-0.23,-0.15,1721198951342,10000.0,11.70631453532665,0.33391615714128,11.70631453532665,0.33391615714128,3.62,-0.0633333333333333,48.862300000000005,0.0497333333333333,6.990157365896708,0.2230097157823697
-2.05,0.13,7.54,-0.06,0.12,0.02,1721198951352,10000.0,7.814793663302954,0.1356465996625053,7.814793663302954,0.1356465996625053,1.8733333333333333,0.0266666666666666,25.27143333333333,0.0081333333333333,5.02707005454801,0.0901849950564578
-0.81,3.0,7.25,0.06,-0.08,0.23,1721198951362,10000.0,7.887876773885353,0.250798724079689,7.887876773885353,0.250798724079689,3.1466666666666665,0.07,16.257033333333336,0.0241,4.032001157407241,0.1552417469626002
2.31,4.33,8.22,-0.07,0.12,0.02,1721198951372,10000.0,9.573578223423048,0.140356688476182,9.573578223423048,0.140356688476182,4.953333333333334,0.0233333333333333,9.023433333333337,0.0090333333333333,3.003903016632417,0.0950438495292216
2.07,1.73,13.41,-0.04,-0.06,-0.16,1721198951382,10000.0,13.678665870617646,0.1754992877478424,13.678665870617646,0.1754992877478424,5.736666666666667,-0.0866666666666666,44.18893333333334,0.0041333333333333,6.647475711375961,0.0642910050732863
-1.71,-2.99,4.17,-0.09,-0.21,-0.17,1721198951392,10000.0,5.408613500704224,0.2847806173179628,5.408613500704224,0.2847806173179628,-0.1766666666666667,-0.1566666666666666,14.579733333333332,0.0037333333333333,3.818341699394298,0.0611010092660778
-3.06,1.72,13.72,-0.03,0.11,0.0,1721198951402,10000.0,14.161934896051456,0.1140175425099137,14.161934896051456,0.1140175425099137,4.126666666666667,0.0266666666666666,74.73613333333334,0.0054333333333333,8.645006265661891,0.0737111479583199
1.32,-1.71,5.19,-0.08,-0.08,0.13,1721198951412,10000.0,5.621618983887116,0.1723368793961408,5.621618983887116,0.1723368793961408,1.6000000000000003,-0.01,11.9613,0.0147,3.4585112404038822,0.1212435565298214
0.74,-1.13,9.64,-0.17,-0.05,-0.05,1721198951422,10000.0,9.734171767541396,0.1841195263952197,9.734171767541396,0.1841195263952197,3.083333333333333,-0.09,33.11663333333333,0.0048,5.754705321155318,0.069282032302755
0.22,1.47,16.8,0.03,0.1,-0.24,1721198951432,10000.0,16.865624803131368,0.261725046566048,16.865624803131368,0.261725046566048,6.163333333333334,-0.0366666666666666,85.24463333333334,0.0322333333333333,9.232802030441968,0.179536440126603
-2.08,-1.58,13.86,0.07,-0.2,-0.19,1721198951442,10000.0,14.103985252402952,0.2846049894151541,14.103985252402952,0.2846049894151541,3.4,-0.1066666666666666,82.12119999999999,0.0234333333333333,9.062074817612134,0.1530795000427338
-4.37,3.02,10.57,0.19,-0.08,0.09,1721198951452,10000.0,11.829716818250557,0.2249444375840398,11.829716818250557,0.2249444375840398,3.0733333333333337,0.0666666666666666,55.80303333333333,0.0186333333333333,7.470142792031042,0.1365039681962884
0.88,1.12,7.09,-0.06,0.09,0.25,1721198951462,10000.0,7.231659560571141,0.2723967694375247,7.231659560571141,0.2723967694375247,3.03,0.0933333333333333,12.3771,0.0240333333333333,3.518110288208714,0.1550268793897798
1.5,2.52,9.65,0.11,-0.18,0.12,1721198951472,10000.0,10.085777114332837,0.2426932219902319,10.085777114332837,0.2426932219902319,4.556666666666667,0.0166666666666666,19.71663333333333,0.0290333333333333,4.44034157845242,0.1703917055884274
3.0,-0.64,8.6,-0.13,0.15,-0.19,1721198951482,10000.0,9.130695482820572,0.2747726332806817,9.130695482820572,0.2747726332806817,3.653333333333333,-0.0566666666666666,21.66453333333333,0.0329333333333333,4.654517518855561,0.1814754345175493
-1.36,2.22,11.82,0.08,-0.26,-0.22,1721198951492,10000.0,12.103321858068552,0.349857113690718,12.103321858068552,0.349857113690718,4.226666666666667,-0.1333333333333333,46.44813333333334,0.0345333333333333,6.815286738893187,0.1858314648635513
-1.75,0.38,10.21,-0.02,0.07,-0.08,1721198951502,10000.0,10.365857417502909,0.1081665382639196,10.365857417502909,0.1081665382639196,2.9466666666666668,-0.01,40.70123333333333,0.0057,6.379751823804225,0.0754983443527075
-1.78,1.02,12.53,0.04,-0.07,0.13,1721198951512,10000.0,12.696838189092588,0.1529705854077835,12.696838189092588,0.1529705854077835,3.923333333333333,0.0333333333333333,57.51603333333332,0.0100333333333333,7.583932577056135,0.1001665280087781
1.08,-1.62,7.82,0.01,-0.06,0.09,1721198951522,10000.0,8.058734391950141,0.1086278049120021,8.058734391950141,0.1086278049120021,2.4266666666666667,0.0133333333333333,23.63853333333333,0.0056333333333333,4.861947483605035,0.0750555349946513
1.1,3.85,13.02,0.04,0.08,-0.08,1721198951532,10000.0,13.621780353536758,0.12,13.621780353536758,0.12,5.989999999999999,0.0133333333333333,38.95629999999999,0.0069333333333333,6.241498217575648,0.0832666399786453
0.01,0.68,6.12,0.02,-0.19,-0.15,1721198951542,10000.0,6.157670013893242,0.2428991560298223,6.157670013893242,0.2428991560298223,2.27,-0.1066666666666666,11.2291,0.0124333333333333,3.3509849298377934,0.1115048578911848
-2.65,3.24,13.59,-0.02,0.0,-0.07,1721198951552,10000.0,14.219992967649455,0.0728010988928051,14.219992967649455,0.0728010988928051,4.726666666666667,-0.03,67.59203333333333,0.0013,8.221437425008679,0.0360555127546399
-0.08,0.13,6.33,0.03,-0.09,0.07,1721198951562,10000.0,6.331840174862281,0.1178982612255159,6.331840174862281,0.1178982612255159,2.1266666666666665,0.0033333333333333,13.262033333333331,0.0069333333333333,3.641707474981116,0.0832666399786453
0.16,1.54,9.9,-0.06,-0.01,0.03,1721198951572,10000.0,10.020339315612022,0.0678232998312526,10.020339315612022,0.0678232998312526,3.8666666666666663,-0.0133333333333333,27.77693333333333,0.0020333333333333,5.270382655304388,0.0450924975282289
2.26,0.25,9.3,-0.07,-0.04,-0.06,1721198951582,10000.0,9.573928138439312,0.1004987562112089,9.573928138439312,0.1004987562112089,3.936666666666667,-0.0566666666666666,22.584033333333338,0.0002333333333333,4.752266126105875,0.0152752523165194
0.21,0.81,11.09,-0.0,-0.1,-0.17,1721198951592,10000.0,11.121524176119026,0.1972308292331602,11.121524176119026,0.1972308292331602,4.036666666666666,-0.09,37.40213333333333,0.0073,6.115728356731791,0.0854400374531753
-1.24,1.88,10.17,-0.06,0.05,-0.17,1721198951602,10000.0,10.416376529292709,0.187082869338697,10.416376529292709,0.187082869338697,3.6033333333333335,-0.06,34.774433333333334,0.0121,5.896985105402025,0.11
-1.84,0.86,12.94,-0.03,-0.08,-0.08,1721198951612,10000.0,13.0984273865224,0.1170469991071962,13.0984273865224,0.1170469991071962,3.9866666666666655,-0.0633333333333333,61.944133333333326,0.0008333333333333,7.870459537621252,0.0288675134594812
-1.01,1.42,7.65,0.05,-0.04,0.07,1721198951622,10000.0,7.84595437152167,0.0948683298050513,7.84595437152167,0.0948683298050513,2.686666666666667,0.0266666666666666,19.95223333333333,0.0034333333333333,4.466792286790749,0.0585946527708231
1.29,-0.92,10.48,-0.18,0.09,-0.02,1721198951632,10000.0,10.599099018312833,0.2022374841615668,10.599099018312833,0.2022374841615668,3.6166666666666663,-0.0366666666666666,36.55003333333333,0.0184333333333333,6.04566235687483,0.1357694123627753
-0.2,2.29,6.56,0.05,-0.2,-0.06,1721198951642,10000.0,6.951093439164805,0.2147091055358389,6.951093439164805,0.2147091055358389,2.883333333333333,-0.07,11.688433333333332,0.0157,3.4188350842550643,0.1252996408614167
2.07,0.43,11.77,-0.2,0.28,-0.24,1721198951652,10000.0,11.958373635239868,0.4195235392680606,11.958373635239868,0.4195235392680606,4.756666666666667,-0.0533333333333333,37.56253333333333,0.0837333333333333,6.128828055455083,0.2893671255228094
-1.63,-1.32,11.97,0.01,-0.27,-0.13,1721198951662,10000.0,12.152374253618095,0.299833287011299,12.152374253618095,0.299833287011299,3.0066666666666664,-0.13,60.28003333333335,0.0196,7.764021724166757,0.14
-3.49,2.02,11.6,-0.06,0.09,-0.11,1721198951672,10000.0,12.280899804167444,0.1542724862054151,12.280899804167444,0.1542724862054151,3.3766666666666665,-0.0266666666666666,58.307433333333336,0.0108333333333333,7.635930417004422,0.1040832999733066
0.32,-0.16,9.71,-0.06,-0.06,0.07,1721198951682,10000.0,9.71658890763626,0.11,9.71658890763626,0.11,3.2900000000000005,-0.0166666666666666,30.969900000000003,0.0056333333333333,5.565060646569811,0.0750555349946513
-0.16,1.59,14.94,-0.07,-0.04,-0.02,1721198951692,10000.0,15.025222128141731,0.0830662386291807,15.025222128141731,0.0830662386291807,5.456666666666667,-0.0433333333333333,68.21583333333334,0.0006333333333333,8.259287701329537,0.0251661147842358
1.12,-0.63,6.43,0.05,-0.07,-0.13,1721198951702,10000.0,6.557148770616692,0.1558845726811989,6.557148770616692,0.1558845726811989,2.306666666666666,-0.05,13.517033333333332,0.0084,3.676551826553426,0.0916515138991168
0.13,0.4,11.4,-0.12,0.05,-0.18,1721198951712,10000.0,11.407756133438337,0.2220360331117451,11.407756133438337,0.2220360331117451,3.9766666666666666,-0.0833333333333333,41.34763333333333,0.0142333333333333,6.430212541847535,0.1193035344544885
-1.62,0.89,7.75,0.09,-0.14,-0.09,1721198951722,10000.0,7.9673709591056445,0.189208879284245,7.9673709591056445,0.189208879284245,2.34,-0.0466666666666666,23.5261,0.0146333333333333,4.8503711198216575,0.120968315410827
-1.07,2.91,10.92,-0.1,0.1,-0.05,1721198951732,10000.0,11.351625434271517,0.15,11.351625434271517,0.15,4.253333333333333,-0.0166666666666666,37.29343333333333,0.0108333333333333,6.1068349685686885,0.1040832999733066
0.61,3.31,9.46,0.09,-0.14,0.13,1721198951742,10000.0,10.040906333593597,0.2111871208194287,10.040906333593597,0.2111871208194287,4.46,0.0266666666666666,20.572500000000005,0.0212333333333333,4.535691788470642,0.1457166199626293
2.51,-1.98,8.93,-0.24,0.1,-0.03,1721198951752,10000.0,9.485009225087763,0.261725046566048,9.485009225087763,0.261725046566048,3.153333333333333,-0.0566666666666666,30.067433333333334,0.0294333333333333,5.48337791268606,0.1715614564327703
-0.49,1.6,14.54,0.09,-0.18,-0.26,1721198951762,10000.0,14.635972806752545,0.3287856444554719,14.635972806752545,0.3287856444554719,5.216666666666666,-0.1166666666666666,66.28543333333334,0.0336333333333333,8.141586659449947,0.1833939293797189
-0.62,-0.96,9.78,-0.12,0.09,-0.24,1721198951772,10000.0,9.846542540404728,0.2830194339616981,9.846542540404728,0.2830194339616981,2.733333333333333,-0.09,37.27053333333333,0.0278999999999999,6.1049597323269325,0.1670329308849006
-2.83,2.74,14.04,0.2,-0.2,0.05,1721198951782,10000.0,14.582115758695648,0.2872281323269015,14.582115758695648,0.2872281323269015,4.65,0.0166666666666666,73.8853,0.0408333333333333,8.595655879570796,0.202072594216369
1.83,0.75,5.92,-0.04,0.15,0.12,1721198951792,10000.0,6.241618379875527,0.1962141687034858,6.241618379875527,0.1962141687034858,2.833333333333333,0.0766666666666666,7.437233333333333,0.0104333333333333,2.727129137634177,0.102143689640297
1.62,1.99,11.92,0.02,-0.07,-0.04,1721198951802,10000.0,12.19306770259232,0.0830662386291807,12.19306770259232,0.0830662386291807,5.176666666666667,-0.03,34.13863333333333,0.0021,5.842827511858735,0.0458257569495584
0.49,2.56,4.54,-0.01,-0.06,-0.31,1721198951812,10000.0,5.2350071633188815,0.3159113799786263,5.2350071633188815,0.3159113799786263,2.53,-0.1266666666666666,4.1013,0.0258333333333333,2.0251666598085207,0.1607275126832159
-1.69,1.45,14.13,-0.08,-0.0,-0.27,1721198951822,10000.0,14.304387438824495,0.2816025568065745,14.304387438824495,0.2816025568065745,4.63,-0.1166666666666666,70.1524,0.0192333333333333,8.375702955573342,0.1386842937514315
-1.93,1.82,9.66,0.12,-0.09,-0.0,1721198951832,10000.0,10.017629460106818,0.15,10.017629460106818,0.15,3.1833333333333336,0.01,34.97603333333333,0.0110999999999999,5.914053883194955,0.1053565375285273
1.42,-0.37,11.28,-0.11,0.15,0.08,1721198951842,10000.0,11.375047252649107,0.2024845673131659,11.375047252649107,0.2024845673131659,4.109999999999999,0.04,39.3577,0.0180999999999999,6.273571550560334,0.1345362404707371
1.43,1.32,10.33,0.09,-0.17,-0.08,1721198951852,10000.0,10.511717271692577,0.2083266665599966,10.511717271692577,0.2083266665599966,4.36,-0.0533333333333333,26.7337,0.0174333333333333,5.17046419579519,0.1320353488022557
1.46,0.05,10.29,-0.08,0.11,-0.31,1721198951862,10000.0,10.39318045643392,0.3385262175962151,10.39318045643392,0.3385262175962151,3.933333333333333,-0.0933333333333333,30.80243333333333,0.0442333333333333,5.549993993990744,0.2103172207246314
-1.89,1.28,9.94,0.09,-0.14,-0.29,1721198951872,10000.0,10.19873031313212,0.3343650699460097,10.19873031313212,0.3343650699460097,3.11,-0.1133333333333333,37.4989,0.0366333333333333,6.123634541675393,0.1913983629327412
-2.6,0.85,8.2,0.0,0.05,-0.1,1721198951882,10000.0,8.644217720534346,0.1118033988749895,8.644217720534346,0.1118033988749895,2.15,-0.0166666666666666,30.42749999999999,0.0058333333333333,5.516112761719071,0.0763762615825973
-1.05,1.21,10.79,-0.02,0.07,0.06,1721198951892,10000.0,10.908285841505986,0.094339811320566,10.908285841505986,0.094339811320566,3.65,0.0366666666666666,39.5116,0.0024333333333333,6.285825323694574,0.0493288286231624
0.99,-0.87,9.98,-0.01,-0.07,-0.01,1721198951902,10000.0,10.066647902852267,0.0714142842854285,10.066647902852267,0.0714142842854285,3.3666666666666667,-0.03,33.667033333333336,0.0012,5.802329991764803,0.0346410161513775
1.23,-1.32,11.31,0.01,0.02,-0.21,1721198951912,10000.0,11.453008338423578,0.2111871208194287,11.453008338423578,0.2111871208194287,3.74,-0.06,44.6043,0.0169,6.6786450721684565,0.13
-1.03,2.0,11.65,0.13,-0.05,-0.23,1721198951922,10000.0,11.865218076377694,0.268886593194975,11.865218076377694,0.268886593194975,4.206666666666667,-0.05,43.84763333333333,0.0324,6.621754550973129,0.18
-1.1,4.2,10.67,0.1,0.09,-0.13,1721198951932,10000.0,11.519500857242036,0.187082869338697,11.519500857242036,0.187082869338697,4.59,0.02,34.7473,0.0169,5.894684045816196,0.13
1.4,-0.36,8.08,-0.05,-0.02,-0.01,1721198951942,10000.0,8.208288493955363,0.0547722557505166,8.208288493955363,0.0547722557505166,3.0400000000000005,-0.0266666666666666,19.8256,0.0004333333333333,4.45259474913224,0.0208166599946613
-1.5,-0.48,10.88,0.06,-0.08,-0.19,1721198951952,10000.0,10.99339801881111,0.2147091055358388,10.99339801881111,0.2147091055358388,2.966666666666667,-0.07,47.22573333333334,0.0157,6.872098175472564,0.1252996408614166
0.45,0.85,13.27,0.04,0.23,-0.22,1721198951962,10000.0,13.30480740183788,0.3207802986469087,13.30480740183788,0.3207802986469087,4.8566666666666665,0.0166666666666666,53.12813333333334,0.0510333333333333,7.288904810280714,0.225905584998099
0.09,1.88,7.07,0.17,-0.14,-0.0,1721198951972,10000.0,7.31624220484806,0.2202271554554524,7.31624220484806,0.2202271554554524,3.0133333333333336,0.01,13.143433333333334,0.0241,3.6253873356282,0.1552417469626002
1.11,2.06,10.09,-0.05,0.22,-0.08,1721198951982,10000.0,10.357789339429528,0.2393741840717164,10.357789339429528,0.2393741840717164,4.42,0.0299999999999999,24.3373,0.0273,4.933284909672256,0.165227116418583
0.53,2.98,9.98,0.13,-0.07,-0.2,1721198951992,10000.0,10.42888776428244,0.2485960578931211,10.42888776428244,0.2485960578931211,4.496666666666667,-0.0466666666666666,24.050833333333337,0.0276333333333333,4.904164896629531,0.1662327685305557
-0.72,0.54,8.54,-0.07,0.06,-0.27,1721198952002,10000.0,8.587292937823886,0.2853068523537421,8.587292937823886,0.2853068523537421,2.786666666666666,-0.0933333333333333,25.222533333333324,0.0276333333333333,5.022204031432149,0.1662327685305557
-1.48,1.99,13.14,0.14,0.02,-0.11,1721198952012,10000.0,13.371989380791476,0.1791647286716891,13.371989380791476,0.1791647286716891,4.55,0.0166666666666666,58.3513,0.0156333333333333,7.638802262135079,0.1250333288900736
0.14,-0.35,5.64,-0.05,0.01,-0.03,1721198952022,10000.0,5.652583480144278,0.0591607978309961,5.652583480144278,0.0591607978309961,1.81,-0.0233333333333333,11.0617,0.0009333333333333,3.325913408373706,0.0305505046330389
-0.17,5.69,12.12,0.13,0.05,-0.05,1721198952032,10000.0,13.390272588711554,0.1479864858694874,13.390272588711554,0.1479864858694874,5.88,0.0433333333333333,37.78809999999999,0.0081333333333333,6.147202615824534,0.0901849950564579
2.81,-0.56,7.57,-0.14,0.08,-0.2,1721198952042,10000.0,8.094108968873597,0.2569046515733026,8.094108968873597,0.2569046515733026,3.273333333333333,-0.0866666666666666,16.685233333333336,0.0217333333333333,4.084756214675894,0.1474222959166398
-2.48,1.03,15.33,0.06,-0.12,-0.27,1721198952052,10000.0,15.563425072907313,0.3014962686336267,15.563425072907313,0.3014962686336267,4.626666666666667,-0.11,89.00103333333334,0.0273,9.434035898454772,0.165227116418583
-1.11,-1.21,10.7,-0.02,0.23,-0.21,1721198952062,10000.0,10.825257502710963,0.3120897306865446,10.825257502710963,0.3120897306865446,2.793333333333333,9.251858538542969e-18,46.88903333333333,0.0486999999999999,6.847556741884898,0.2206807649071391
-1.44,0.95,14.36,0.11,-0.02,-0.03,1721198952072,10000.0,14.46325343759142,0.1157583690279022,14.46325343759142,0.1157583690279022,4.623333333333333,0.02,72.53003333333332,0.0061,8.516456618414335,0.0781024967590665
0.24,-0.27,10.34,0.02,0.13,-0.02,1721198952082,10000.0,10.34630852043375,0.1330413469565007,10.34630852043375,0.1330413469565007,3.436666666666667,0.0433333333333333,35.80703333333333,0.0060333333333333,5.983897837808842,0.0776745346515402
0.59,3.88,9.48,0.17,0.01,-0.03,1721198952092,10000.0,10.260258281349453,0.1729161646579058,10.260258281349453,0.1729161646579058,4.65,0.05,20.2027,0.0112,4.494741371870021,0.1058300524425836
1.6,1.03,10.85,-0.07,0.13,-0.26,1721198952102,10000.0,11.015598031881884,0.298998327754521,11.015598031881884,0.298998327754521,4.493333333333333,-0.0666666666666666,30.38663333333333,0.0380333333333333,5.512407217662111,0.195021366350801
-1.58,2.55,11.52,0.16,-0.11,-0.21,1721198952112,10000.0,11.904171537742556,0.2860069929215018,11.904171537742556,0.2860069929215018,4.163333333333333,-0.0533333333333333,44.854633333333325,0.0366333333333333,6.697360176467541,0.1913983629327412
-1.69,0.39,6.16,-0.06,0.13,-0.07,1721198952122,10000.0,6.399515606668992,0.1593737745050922,6.399515606668992,0.1593737745050922,1.62,0.0,16.540300000000002,0.0127,4.06697676413328,0.1126942766958464
-0.72,1.42,11.71,-0.03,0.06,0.02,1721198952132,10000.0,11.817736669938116,0.0699999999999999,11.817736669938116,0.0699999999999999,4.136666666666667,0.0166666666666666,44.161433333333335,0.0020333333333333,6.645406935119424,0.0450924975282289
0.8,-2.94,4.44,-0.05,-0.1,-0.03,1721198952142,10000.0,5.384904827385531,0.1157583690279022,5.384904827385531,0.1157583690279022,0.7666666666666669,-0.06,13.616933333333336,0.0013,3.690112916068197,0.0360555127546399
-0.03,2.72,13.38,0.01,0.12,-0.14,1721198952152,10000.0,13.653706456490122,0.1846618531261939,13.653706456490122,0.1846618531261939,5.3566666666666665,-0.0033333333333333,50.17103333333333,0.0170333333333333,7.0831513702118025,0.1305118130030126
1.8,-1.86,5.52,-0.09,-0.07,-0.16,1721198952162,10000.0,6.096720429870472,0.196468827043885,6.096720429870472,0.196468827043885,1.82,-0.1066666666666666,13.6164,0.0022333333333333,3.690040650182597,0.047258156262526
-1.71,0.85,12.94,0.02,-0.04,-0.25,1721198952172,10000.0,13.080145259132252,0.2539685019840059,13.080145259132252,0.2539685019840059,4.026666666666666,-0.09,61.22403333333334,0.0200999999999999,7.82457879590546,0.1417744687875782
-0.18,1.92,8.22,0.1,0.1,-0.1,1721198952182,10000.0,8.443174758347716,0.1732050807568877,8.443174758347716,0.1732050807568877,3.3200000000000003,0.0333333333333333,19.110000000000007,0.0133333333333333,4.37149859887888,0.1154700538379251
-1.66,7.98,12.78,0.05,0.01,-0.02,1721198952192,10000.0,15.157981395951111,0.0547722557505166,15.157981395951111,0.0547722557505166,6.366666666666667,0.0133333333333333,54.080533333333335,0.0012333333333333,7.353946786136906,0.0351188458428424
0.8,0.81,5.88,-0.09,0.0,0.01,1721198952202,10000.0,5.989198610832672,0.0905538513813741,5.989198610832672,0.0905538513813741,2.4966666666666666,-0.0266666666666666,8.585233333333333,0.0030333333333333,2.930056882269239,0.055075705472861
0.92,-6.54,11.45,-0.29,0.07,-0.15,1721198952212,10000.0,13.21818822683351,0.33391615714128,13.21818822683351,0.33391615714128,1.9433333333333327,-0.1233333333333333,81.69543333333331,0.0329333333333333,9.038552612743551,0.1814754345175493
0.03,-1.86,13.83,0.07,-0.03,-0.31,1721198952222,10000.0,13.95454764583933,0.3192177939902473,13.95454764583933,0.3192177939902473,4.0,-0.09,73.3647,0.0388,8.565319608747826,0.196977156035922
-0.6,2.01,6.65,0.01,0.08,-0.19,1721198952232,10000.0,6.972990750029718,0.2063976744055029,6.972990750029718,0.2063976744055029,2.686666666666667,-0.0333333333333333,13.484033333333336,0.0196333333333333,3.672061183223033,0.140118997046558
-1.41,1.21,9.28,-0.08,0.03,-0.06,1721198952242,10000.0,9.46417455460327,0.1044030650891055,9.46417455460327,0.1044030650891055,3.026666666666667,-0.0366666666666666,31.044233333333327,0.0034333333333333,5.571735217446476,0.0585946527708231
-1.58,0.31,8.39,-0.09,-0.03,-0.09,1721198952252,10000.0,8.543102480949178,0.1307669683062202,8.543102480949178,0.1307669683062202,2.373333333333333,-0.0699999999999999,28.04323333333334,0.0012,5.295586212435158,0.0346410161513775
-0.85,1.19,20.79,-0.04,0.16,-0.17,1721198952262,10000.0,20.841369916586576,0.2368543856465402,20.841369916586576,0.2368543856465402,7.043333333333333,-0.0166666666666666,142.76853333333332,0.0276333333333333,11.94857871603704,0.1662327685305557
-0.33,-0.22,9.89,0.14,-0.16,0.0,1721198952272,10000.0,9.897949282553434,0.212602916254693,9.897949282553434,0.212602916254693,3.1133333333333333,-0.0066666666666666,34.44543333333334,0.0225333333333333,5.869023200953745,0.1501110699893027
-0.78,2.22,12.15,-0.07,0.15,0.06,1721198952282,10000.0,12.37575452245236,0.17606816861659,12.37575452245236,0.17606816861659,4.53,0.0466666666666666,45.7983,0.0122333333333333,6.767444126108467,0.1106044001535803
1.24,1.14,6.64,0.11,-0.1,-0.06,1721198952292,10000.0,6.850313861422701,0.1603121954188139,6.850313861422701,0.1603121954188139,3.0066666666666664,-0.0166666666666666,9.903333333333332,0.0124333333333333,3.146956201368766,0.1115048578911848
0.74,-0.78,6.68,-0.1,-0.03,-0.19,1721198952302,10000.0,6.765973691938212,0.216794833886788,6.765973691938212,0.216794833886788,2.2133333333333334,-0.1066666666666666,15.540933333333331,0.0064333333333333,3.942199047908836,0.0802080627701064
-0.22,3.26,14.69,0.13,0.06,-0.24,1721198952312,10000.0,15.04898999933218,0.2794637722496424,15.04898999933218,0.2794637722496424,5.91,-0.0166666666666666,60.8439,0.0386333333333333,7.800249995993718,0.1965536398374075
-1.39,1.22,7.81,-0.01,0.02,-0.13,1721198952322,10000.0,8.025995265386094,0.1319090595827292,8.025995265386094,0.1319090595827292,2.5466666666666664,-0.04,22.48003333333333,0.0063,4.741311351655081,0.0793725393319377
-3.07,2.81,13.04,0.02,-0.02,0.08,1721198952332,10000.0,13.68804587952568,0.0848528137423857,13.68804587952568,0.0848528137423857,4.26,0.0266666666666666,66.4599,0.0025333333333333,8.152294155634966,0.0503322295684716
0.46,1.42,6.44,0.03,-0.02,0.07,1721198952342,10000.0,6.6107185691118335,0.0787400787401181,6.6107185691118335,0.0787400787401181,2.773333333333333,0.0266666666666666,10.313733333333335,0.0020333333333333,3.2115001686646902,0.0450924975282289
2.66,-0.91,11.26,-0.09,0.05,-0.07,1721198952352,10000.0,11.605658102839325,0.1244989959798873,11.605658102839325,0.1244989959798873,4.336666666666667,-0.0366666666666666,39.13563333333333,0.0057333333333333,6.2558479308030925,0.0757187779440036
0.91,0.47,11.12,0.05,-0.04,-0.27,1721198952362,10000.0,11.167067654491934,0.2774887385102322,11.167067654491934,0.2774887385102322,4.166666666666667,-0.0866666666666666,36.31003333333333,0.0272333333333333,6.025780723967088,0.1650252505931542
-1.66,1.36,8.53,-0.03,-0.01,-0.23,1721198952372,10000.0,8.795800134154936,0.232163735324878,8.795800134154936,0.232163735324878,2.7433333333333336,-0.09,27.394233333333325,0.0148,5.233950069816613,0.1216552506059644
-1.85,3.72,11.13,0.11,0.0,0.01,1721198952382,10000.0,11.880143096781286,0.1104536101718726,11.880143096781286,0.1104536101718726,4.333333333333333,0.04,42.40223333333334,0.0037,6.511699726901828,0.0608276253029822
1.27,-0.09,1.16,-0.12,-0.01,0.05,1721198952392,10000.0,1.7223820714347904,0.130384048104053,1.7223820714347904,0.130384048104053,0.7799999999999999,-0.0266666666666666,0.5707,0.0074333333333333,0.7554468876102409,0.086216781042517
1.55,-1.22,14.54,-0.27,0.15,-0.17,1721198952402,10000.0,14.673189837250794,0.3525620512760839,14.673189837250794,0.3525620512760839,4.956666666666666,-0.0966666666666666,70.79843333333332,0.0481333333333333,8.414180490893532,0.2193931022920578
-0.63,-2.72,21.39,0.02,-0.06,-0.29,1721198952412,10000.0,21.571448722790965,0.2968164415931166,21.571448722790965,0.2968164415931166,6.013333333333333,-0.1099999999999999,178.42343333333335,0.0258999999999999,13.357523473059418,0.1609347693943108
-3.93,3.55,17.16,0.32,-0.12,-0.17,1721198952422,10000.0,17.95864694235064,0.3817066936798463,17.95864694235064,0.3817066936798463,5.593333333333334,0.01,114.32843333333332,0.0727,10.692447490323875,0.2696293752542553
-0.47,4.33,3.59,0.08,0.09,0.12,1721198952432,10000.0,5.644280290701375,0.1699999999999999,5.644280290701375,0.1699999999999999,2.4833333333333334,0.0966666666666666,6.678533333333332,0.0004333333333333,2.5842858459027576,0.0208166599946613
2.13,0.5,7.68,-0.09,0.07,0.01,1721198952442,10000.0,7.985568232755888,0.1144552314225959,7.985568232755888,0.1144552314225959,3.436666666666666,-0.0033333333333333,14.168633333333334,0.0065333333333333,3.7641245108701353,0.0808290376865476
1.98,-0.13,6.06,-0.02,-0.02,-0.29,1721198952452,10000.0,6.376589997796628,0.2913760456866693,6.376589997796628,0.2913760456866693,2.6366666666666667,-0.1099999999999999,9.902433333333333,0.0242999999999999,3.146813202802691,0.1558845726811989
-0.15,0.8,11.6,-0.07,0.08,-0.35,1721198952462,10000.0,11.628520972161509,0.3657868231634376,11.628520972161509,0.3657868231634376,4.083333333333333,-0.1133333333333333,42.60083333333333,0.0476333333333333,6.526931387208949,0.2182506204649446
-3.41,1.67,9.34,0.03,-0.08,-0.16,1721198952472,10000.0,10.08229140622309,0.1813835714721705,10.08229140622309,0.1813835714721705,2.533333333333333,-0.07,41.19963333333334,0.0091,6.418694052011931,0.0953939201416945
-1.87,0.19,10.42,-0.13,0.14,0.09,1721198952482,10000.0,10.588172646873492,0.2111871208194287,10.588172646873492,0.2111871208194287,2.9133333333333336,0.0333333333333333,43.32343333333333,0.0206333333333333,6.58205388411044,0.1436430761761016
0.17,0.09,10.58,-0.03,-0.09,0.11,1721198952492,10000.0,10.58174843775829,0.1452583904633395,10.58174843775829,0.1452583904633395,3.613333333333333,-0.0033333333333333,36.402433333333335,0.0105333333333333,6.033442908765553,0.1026320287889376
1.92,0.41,12.22,-0.11,0.09,-0.13,1721198952502,10000.0,12.376707962943945,0.1926136028425822,12.376707962943945,0.1926136028425822,4.8500000000000005,-0.05,41.3077,0.0148,6.427106658520613,0.1216552506059644
0.46,1.91,12.94,0.07,-0.09,-0.29,1721198952512,10000.0,13.088288658185988,0.3116087290176576,13.088288658185988,0.3116087290176576,5.103333333333333,-0.1033333333333333,46.58563333333333,0.0325333333333333,6.825366901004908,0.1803699901129157
-1.45,0.31,7.76,0.0,-0.02,-0.17,1721198952522,10000.0,7.900392395318096,0.1711724276862369,7.900392395318096,0.1711724276862369,2.2066666666666666,-0.0633333333333333,23.90403333333333,0.0086333333333333,4.889175117883725,0.0929157324317757
-1.83,1.07,10.09,-0.04,0.06,0.05,1721198952532,10000.0,10.310281276473498,0.0877496438739212,10.310281276473498,0.0877496438739212,3.11,0.0233333333333333,38.6428,0.0030333333333333,6.216333324396304,0.055075705472861
0.42,0.79,10.43,-0.05,0.0,0.01,1721198952542,10000.0,10.46830454276145,0.0509901951359278,10.46830454276145,0.0509901951359278,3.88,-0.0133333333333333,32.211099999999995,0.0010333333333333,5.675482358355103,0.0321455025366431
0.79,0.58,11.36,-0.02,-0.01,-0.12,1721198952552,10000.0,11.402197156688706,0.122065556157337,11.402197156688706,0.122065556157337,4.243333333333333,-0.0499999999999999,37.99623333333333,0.0037,6.164108478387878,0.0608276253029822
-1.01,3.14,9.3,0.06,-0.03,-0.2,1721198952562,10000.0,9.867608626207264,0.2109502310972899,9.867608626207264,0.2109502310972899,3.81,-0.0566666666666666,26.9107,0.0174333333333333,5.187552409373808,0.1320353488022557
-0.45,0.21,8.57,-0.06,0.04,-0.09,1721198952572,10000.0,8.584375341281392,0.1153256259467079,8.584375341281392,0.1153256259467079,2.776666666666667,-0.0366666666666666,25.280933333333333,0.0046333333333333,5.028014850150438,0.0680685928555404
-0.19,-0.23,8.98,-0.02,-0.02,0.01,1721198952582,10000.0,8.984954090032959,0.03,8.984954090032959,0.03,2.853333333333333,-0.01,28.15243333333333,0.0003,5.305886667969204,0.0173205080756887
0.19,0.34,8.56,-0.01,0.01,-0.05,1721198952592,10000.0,8.568856399777044,0.0519615242270663,8.568856399777044,0.0519615242270663,3.03,-0.0166666666666666,22.941300000000005,0.0009333333333333,4.789707715508328,0.0305505046330389
1.11,2.3,9.76,0.01,0.0,-0.11,1721198952602,10000.0,10.08859256784612,0.1104536101718726,10.08859256784612,0.1104536101718726,4.39,-0.0333333333333333,21.9817,0.0044333333333333,4.688464567425032,0.0665832811847939
0.28,-0.03,8.19,0.01,-0.03,-0.18,1721198952612,10000.0,8.194839839801629,0.1827566688249706,8.194839839801629,0.1827566688249706,2.813333333333333,-0.0666666666666666,21.70543333333333,0.0100333333333333,4.6589090282311085,0.1001665280087781
-1.29,-0.57,12.71,-0.0,0.03,-0.16,1721198952622,10000.0,12.788006099466797,0.162788205960997,12.788006099466797,0.162788205960997,3.616666666666667,-0.0433333333333333,62.14613333333334,0.0104333333333333,7.883281888486123,0.102143689640297
-1.24,0.89,8.66,0.08,-0.07,-0.02,1721198952632,10000.0,8.793480539581582,0.1081665382639196,8.793480539581582,0.1081665382639196,2.77,-0.0033333333333333,27.1533,0.0058333333333333,5.210882842666874,0.0763762615825973
0.22,7.24,18.68,0.03,0.22,-0.06,1721198952642,10000.0,20.035179060841955,0.2299999999999999,20.035179060841955,0.2299999999999999,8.713333333333333,0.0633333333333333,86.82093333333333,0.0204333333333333,9.317775127858225,0.1429452109492771
2.05,-0.85,11.23,0.01,0.19,-0.18,1721198952657,15000.0,11.447178691712644,0.2619160170741759,11.447178691712644,0.2619160170741759,4.1433333333333335,0.0066666666666666,39.76813333333333,0.0342333333333333,6.306198009366129,0.1850225211517056
-1.31,-0.9,12.63,0.03,0.12,-0.24,1721198952661,4000.0,12.72961114881362,0.2699999999999999,12.72961114881362,0.2699999999999999,3.473333333333334,-0.03,62.92543333333334,0.0350999999999999,7.93255528397586,0.1873499399519519
0.13,-0.7,10.22,0.22,-0.01,-0.1,1721198952671,10000.0,10.244769397111876,0.2418677324489564,10.244769397111876,0.2418677324489564,3.216666666666667,0.0366666666666666,36.95723333333334,0.0272333333333333,6.07924611554207,0.1650252505931542
0.25,3.63,5.31,0.16,-0.02,0.05,1721198952681,10000.0,6.437041245789869,0.1688194301613413,6.437041245789869,0.1688194301613413,3.063333333333333,0.0633333333333333,6.641733333333333,0.0082333333333333,2.5771560552929915,0.0907377172587746
1.14,4.54,11.99,0.1,0.07,-0.13,1721198952691,10000.0,12.871336371954545,0.1783255450012701,12.871336371954545,0.1783255450012701,5.890000000000001,0.0133333333333333,30.7975,0.0156333333333333,5.549549531268281,0.1250333288900736
-0.1,1.75,9.16,0.18,-0.15,-0.14,1721198952701,10000.0,9.326205015975148,0.2729468812791236,9.326205015975148,0.2729468812791236,3.6033333333333335,-0.0366666666666666,24.013033333333333,0.0352333333333333,4.900309514034122,0.1877054430040144
-2.64,2.86,10.33,0.1,0.05,-0.11,1721198952711,10000.0,11.038935637098351,0.1568438714135812,11.038935637098351,0.1568438714135812,3.516666666666667,0.0133333333333333,42.37863333333333,0.0120333333333333,6.509887351815954,0.1096965511460289
-0.48,-0.26,8.83,0.0,0.04,0.03,1721198952721,10000.0,8.846858199383552,0.05,8.846858199383552,0.05,2.6966666666666668,0.0233333333333333,28.22543333333333,0.0004333333333333,5.312761366119632,0.0208166599946613
1.31,1.55,13.61,0.1,0.01,0.03,1721198952731,10000.0,13.760476009208402,0.1048808848170151,13.760476009208402,0.1048808848170151,5.489999999999999,0.0466666666666666,49.4652,0.0022333333333333,7.0331500766015225,0.047258156262526
2.48,1.99,7.06,0.1,0.02,-0.13,1721198952741,10000.0,7.743003293296471,0.165227116418583,7.743003293296471,0.165227116418583,3.843333333333333,-0.0033333333333333,7.820233333333332,0.0136333333333333,2.796468010425532,0.1167618659209133
-0.16,-0.32,9.1,-0.04,-0.02,-0.21,1721198952751,10000.0,9.10703025140468,0.2147091055358388,9.10703025140468,0.2147091055358388,2.873333333333333,-0.09,29.08493333333333,0.0109,5.393044903700815,0.1044030650891055
-2.13,0.96,12.73,0.07,0.02,-0.24,1721198952761,10000.0,12.942619518474611,0.250798724079689,12.942619518474611,0.250798724079689,3.8533333333333335,-0.0499999999999999,61.48343333333334,0.0277,7.841137247449081,0.1664331697709323
-1.28,-0.88,8.08,0.01,-0.01,-0.09,1721198952771,10000.0,8.227952357664694,0.0911043357914429,8.227952357664694,0.0911043357914429,1.9733333333333332,-0.03,28.00853333333333,0.0028,5.2923088849134015,0.0529150262212918
-1.13,3.75,11.02,0.07,0.03,0.03,1721198952781,10000.0,11.69528965011128,0.0818535277187245,11.69528965011128,0.0818535277187245,4.546666666666667,0.0433333333333333,37.38163333333333,0.0005333333333333,6.114052120593456,0.023094010767585
2.04,0.91,7.36,-0.04,0.06,-0.07,1721198952791,10000.0,7.691508304617502,0.1004987562112089,7.691508304617502,0.1004987562112089,3.436666666666667,-0.0166666666666666,11.863633333333334,0.0046333333333333,3.4443625438291674,0.0680685928555404
0.1,-0.06,8.71,-0.05,-0.05,-0.16,1721198952801,10000.0,8.710780676839477,0.174928556845359,8.710780676839477,0.174928556845359,2.9166666666666665,-0.0866666666666666,25.178433333333334,0.0040333333333333,5.017811607995395,0.0635085296108588
-0.28,-2.13,7.92,-0.14,0.05,-0.32,1721198952811,10000.0,8.206198876459187,0.352845575287547,8.206198876459187,0.352845575287547,1.836666666666667,-0.1366666666666667,28.61083333333333,0.0342333333333333,5.348909546191011,0.1850225211517056
-1.31,0.07,13.36,0.01,-0.05,-0.19,1721198952821,10000.0,13.424254169226684,0.19672315572906,13.424254169226684,0.19672315572906,4.04,-0.0766666666666666,65.6229,0.0105333333333333,8.100796257158922,0.1026320287889376
-0.74,3.46,7.67,0.01,0.04,-0.0,1721198952831,10000.0,8.446780451746097,0.0412310562561766,8.446780451746097,0.0412310562561766,3.4633333333333334,0.0166666666666666,17.682033333333333,0.0004333333333333,4.205000990883752,0.0208166599946613
1.49,-0.2,7.55,-0.15,0.03,-0.13,1721198952841,10000.0,7.698220573613099,0.2007485989988473,7.698220573613099,0.2007485989988473,2.9466666666666668,-0.0833333333333333,16.607033333333334,0.0097333333333333,4.075172797972294,0.0986576572463249
0.06,-2.66,8.94,-0.15,-0.04,-0.26,1721198952851,10000.0,9.327529147636044,0.3028200785945344,9.327529147636044,0.3028200785945344,2.1133333333333333,-0.15,36.80213333333333,0.0121,6.06647618748589,0.11
-1.06,-3.26,16.0,-0.18,0.14,-0.27,1721198952861,10000.0,16.36310483985237,0.3534119409414458,16.36310483985237,0.3534119409414458,3.893333333333333,-0.1033333333333333,111.13853333333331,0.0464333333333333,10.542226203859094,0.2154839514519198
-2.87,-0.86,17.94,0.14,-0.09,-0.17,1721198952871,10000.0,18.188460627551745,0.2379075450674064,18.188460627551745,0.2379075450674064,4.736666666666667,-0.04,131.7560333333333,0.0259,11.478503096368156,0.1609347693943108
-1.94,3.22,9.24,0.16,0.04,0.06,1721198952881,10000.0,9.975449864542451,0.1754992877478424,9.975449864542451,0.1754992877478424,3.5066666666666664,0.0866666666666666,31.30973333333333,0.0041333333333333,5.595510104837032,0.0642910050732863
1.16,3.17,5.8,0.06,-0.01,0.06,1721198952891,10000.0,6.7107749179956855,0.0854400374531753,6.7107749179956855,0.0854400374531753,3.3766666666666665,0.0366666666666666,5.414433333333333,0.0016333333333333,2.3268934941963573,0.0404145188432738
2.6,-0.89,5.51,-0.18,0.02,-0.12,1721198952901,10000.0,6.157288364207088,0.2172556098240043,6.157288364207088,0.2172556098240043,2.4066666666666667,-0.0933333333333333,10.268033333333332,0.0105333333333333,3.204377214582162,0.1026320287889376
0.38,1.05,13.51,-0.06,0.02,-0.29,1721198952911,10000.0,13.55606875166986,0.2968164415931166,13.55606875166986,0.2968164415931166,4.98,-0.1099999999999999,54.6829,0.0258999999999999,7.394788705568267,0.1609347693943108
-1.25,1.65,10.51,0.01,-0.0,-0.29,1721198952921,10000.0,10.711913927958904,0.2901723625709381,10.711913927958904,0.2901723625709381,3.6366666666666663,-0.0933333333333333,37.53453333333333,0.0290333333333333,6.126543342973534,0.1703917055884274
-1.88,2.22,9.83,0.01,-0.0,-0.01,1721198952931,10000.0,10.251424291287528,0.0141421356237309,10.251424291287528,0.0141421356237309,3.39,0.0,35.3077,0.0001,5.942028273241385,0.01
0.49,0.83,11.48,-0.03,0.06,0.11,1721198952941,10000.0,11.520390618377489,0.1288409872672512,11.520390618377489,0.1288409872672512,4.266666666666667,0.0466666666666666,39.05303333333333,0.0050333333333333,6.249242620776804,0.0709459888459758
2.19,3.02,11.05,0.02,0.02,-0.09,1721198952951,10000.0,11.662718379520276,0.094339811320566,11.662718379520276,0.094339811320566,5.420000000000001,-0.0166666666666666,23.944900000000004,0.0040333333333333,4.893352633931056,0.0635085296108588
1.45,1.35,11.91,-0.02,0.0,-0.33,1721198952961,10000.0,12.07365313399387,0.3306055050963308,12.07365313399387,0.3306055050963308,4.903333333333333,-0.1166666666666666,36.82253333333333,0.0342333333333333,6.068157326020258,0.1850225211517056
-2.1,2.81,12.58,0.1,-0.01,-0.31,1721198952971,10000.0,13.059957886608975,0.3258834147360064,13.059957886608975,0.3258834147360064,4.43,-0.0733333333333333,55.8439,0.0450333333333333,7.47287762511872,0.2122105872319601
-1.09,1.41,9.15,0.12,0.08,-0.05,1721198952981,10000.0,9.321947221476853,0.1526433752247374,9.321947221476853,0.1526433752247374,3.1566666666666667,0.05,28.50253333333334,0.0078999999999999,5.33877638914886,0.0888819441731558
1.13,0.99,10.49,-0.01,0.1,0.03,1721198952991,10000.0,10.597032603516892,0.1048808848170151,10.597032603516892,0.1048808848170151,4.203333333333333,0.04,29.64653333333333,0.0031,5.444863022458264,0.0556776436283002
1.57,4.03,10.62,0.14,0.03,-0.14,1721198953001,10000.0,11.466917632912516,0.2002498439450079,11.466917632912516,0.2002498439450079,5.406666666666666,0.01,21.89703333333333,0.0199,4.679426603050135,0.1410673597966588
1.2,2.2,7.91,-0.05,0.1,-0.3,1721198953011,10000.0,8.297475519698748,0.3201562118716424,8.297475519698748,0.3201562118716424,3.77,-0.0833333333333333,13.104700000000005,0.0408333333333333,3.62004143622694,0.202072594216369
-1.26,2.44,10.89,0.08,-0.02,-0.3,1721198953021,10000.0,11.230908244661247,0.3111269837220809,11.230908244661247,0.3111269837220809,4.023333333333333,-0.08,38.785833333333336,0.0387999999999999,6.227827336506154,0.196977156035922
-1.54,0.5,7.99,0.05,0.06,-0.17,1721198953031,10000.0,8.15240455325912,0.187082869338697,8.15240455325912,0.187082869338697,2.316666666666667,-0.02,25.180433333333337,0.0169,5.018010894102696,0.13
-1.26,1.35,10.52,0.02,0.05,-0.04,1721198953041,10000.0,10.680847344663247,0.0670820393249937,10.680847344663247,0.0670820393249937,3.536666666666666,0.01,38.27823333333333,0.0021,6.186940547098649,0.0458257569495584
1.27,0.8,9.56,0.03,0.09,-0.03,1721198953051,10000.0,9.67711217254404,0.0994987437106619,9.67711217254404,0.0994987437106619,3.876666666666667,0.03,24.28043333333333,0.0036,4.9275179688493616,0.06
1.88,0.96,10.56,-0.04,0.07,-0.25,1721198953061,10000.0,10.768918237223271,0.2626785107312739,10.768918237223271,0.2626785107312739,4.466666666666667,-0.0733333333333333,28.058133333333338,0.0264333333333333,5.296992857587533,0.1625833119767626
-0.36,1.8,10.19,0.11,-0.01,-0.41,1721198953071,10000.0,10.35401854354144,0.4246174749112428,10.35401854354144,0.4246174749112428,3.8766666666666665,-0.1033333333333333,31.06003333333333,0.0741333333333333,5.573152907765346,0.2722743714221618
-1.77,0.66,7.49,0.03,0.08,-0.22,1721198953081,10000.0,7.724545294061004,0.2360084744241189,7.724545294061004,0.2360084744241189,2.126666666666667,-0.0366666666666666,23.05023333333333,0.0258333333333333,4.801065853884253,0.1607275126832159
-1.55,1.3,10.59,-0.03,0.11,-0.08,1721198953091,10000.0,10.781493403049506,0.1392838827718412,10.781493403049506,0.1392838827718412,3.4466666666666668,0.0,40.30103333333333,0.0097,6.348309486259577,0.098488578017961
0.1,1.53,9.85,0.07,0.03,-0.11,1721198953101,10000.0,9.968620767187405,0.1337908816025965,9.968620767187405,0.1337908816025965,3.826666666666666,-0.0033333333333333,27.721633333333333,0.0089333333333333,5.265133743157275,0.0945163125250521
1.16,1.36,11.02,-0.03,0.14,-0.2,1721198953111,10000.0,11.164031529873068,0.2459674775249768,11.164031529873068,0.2459674775249768,4.513333333333333,-0.03,31.76253333333333,0.0289,5.635825878549952,0.17
-0.09,-0.38,11.1,0.06,0.01,-0.28,1721198953121,10000.0,11.106867245087608,0.2865309756378881,11.106867245087608,0.2865309756378881,3.543333333333333,-0.07,42.84843333333333,0.0337,6.545871472411701,0.1835755975068582
-1.48,1.05,10.24,0.0,0.19,-0.27,1721198953131,10000.0,10.39954325920134,0.3301514803843836,10.39954325920134,0.3301514803843836,3.27,-0.0266666666666666,38.035900000000005,0.0534333333333333,6.167325190064166,0.2311565126344774
-1.47,0.73,7.13,0.02,0.05,-0.2,1721198953141,10000.0,7.316467726984108,0.2071231517720798,7.316467726984108,0.2071231517720798,2.13,-0.0433333333333333,19.96,0.0186333333333333,4.467661580737735,0.1365039681962884
-1.02,1.12,9.07,-0.01,0.09,-0.18,1721198953151,10000.0,9.19563483398509,0.2014944167960988,9.19563483398509,0.2014944167960988,3.056666666666666,-0.0333333333333333,28.26503333333333,0.0186333333333333,5.316486935311074,0.1365039681962884
0.68,3.22,12.35,0.06,0.2,-0.21,1721198953161,10000.0,12.78097414127734,0.2961418578992169,12.78097414127734,0.2961418578992169,5.416666666666667,0.0166666666666666,37.66623333333333,0.0434333333333333,6.137282243251758,0.2084066537645411
0.09,-0.58,7.27,-0.03,0.02,-0.23,1721198953171,10000.0,7.293654776584918,0.2328089345364563,7.293654776584918,0.2328089345364563,2.26,-0.08,18.9373,0.0175,4.351700816922046,0.1322875655532295
-2.09,0.5,13.44,-0.06,0.14,-0.26,1721198953181,10000.0,13.610720039733383,0.3013303834663873,13.610720039733383,0.3013303834663873,3.95,-0.06,69.2221,0.04,8.319981971134313,0.2
-0.84,1.69,10.2,0.05,0.09,-0.21,1721198953191,10000.0,10.373123926763816,0.2338803112705299,10.373123926763816,0.2338803112705299,3.683333333333333,-0.0233333333333333,33.45043333333332,0.0265333333333333,5.78363495851297,0.1628905563049415
0.0,1.65,9.07,-0.02,0.09,-0.16,1721198953201,10000.0,9.21886110102544,0.1846618531261938,9.21886110102544,0.1846618531261938,3.5733333333333337,-0.03,23.34063333333333,0.0157,4.831214478092784,0.1252996408614166
0.35,2.67,11.76,0.06,0.17,-0.21,1721198953211,10000.0,12.06436902618616,0.2767670500619609,12.06436902618616,0.2767670500619609,4.926666666666667,0.0066666666666666,36.36643333333333,0.0382333333333333,6.030458799571831,0.1955334583474995
1.05,0.66,8.89,0.03,0.11,-0.31,1721198953221,10000.0,8.976090463002254,0.3303028912982749,8.976090463002254,0.3303028912982749,3.5333333333333337,-0.0566666666666666,21.558433333333337,0.0497333333333333,4.643106000656601,0.2230097157823697
-1.77,4.15,11.21,0.11,0.09,-0.33,1721198953231,10000.0,12.083852862394512,0.3593048844644336,12.083852862394512,0.3593048844644336,4.53,-0.0433333333333333,42.22840000000001,0.0617333333333333,6.498338249121848,0.248461935381123
-0.91,1.97,7.3,0.02,0.17,-0.24,1721198953241,10000.0,7.615707452364488,0.2947880594596735,7.615707452364488,0.2947880594596735,2.786666666666666,-0.0166666666666666,17.351233333333333,0.0430333333333333,4.16548116468354,0.2074447717666881
-1.17,1.47,12.19,-0.02,0.15,-0.15,1721198953251,10000.0,12.3339328683109,0.2130727575266251,12.3339328683109,0.2130727575266251,4.163333333333333,-0.0066666666666666,50.06293333333334,0.0226333333333333,7.075516471137166,0.1504437879519567
-0.03,0.01,7.96,0.02,0.12,-0.15,1721198953261,10000.0,7.960062813822514,0.1931320791582796,7.960062813822514,0.1931320791582796,2.646666666666667,-0.0033333333333333,21.17403333333333,0.0186333333333333,4.601525109497212,0.1365039681962884
-0.72,1.24,13.38,-0.01,0.16,-0.28,1721198953271,10000.0,13.456611757794011,0.3226453160980336,13.456611757794011,0.3226453160980336,4.633333333333334,-0.0433333333333333,58.33853333333333,0.0492333333333333,7.637966570582338,0.2218858565419016
-0.32,3.99,11.14,0.15,0.1,-0.22,1721198953281,10000.0,11.83731810842304,0.2844292530665578,11.83731810842304,0.2844292530665578,4.9366666666666665,0.01,33.50503333333334,0.0403,5.788353248837992,0.2007485989988473
0.36,2.75,8.48,0.02,0.21,-0.14,1721198953291,10000.0,8.922023313128026,0.2531797780234432,8.922023313128026,0.2531797780234432,3.863333333333333,0.0299999999999999,17.413233333333338,0.0307,4.172916645864537,0.1752141546793523
-0.55,2.03,10.18,0.05,0.13,-0.2,1721198953301,10000.0,10.394989177483543,0.2437211521390788,10.394989177483543,0.2437211521390788,3.8866666666666663,-0.0066666666666666,31.36863333333333,0.0296333333333333,5.60077078028849,0.1721433511156714
-0.33,-0.99,8.84,-0.03,0.16,-0.28,1721198953311,10000.0,8.90138191518598,0.323882694814033,8.90138191518598,0.323882694814033,2.5066666666666664,-0.05,30.19223333333333,0.0487,5.4947459753234575,0.2206807649071391
-0.83,0.04,11.62,-0.0,0.14,-0.15,1721198953321,10000.0,11.649673815176111,0.2051828452868319,11.649673815176111,0.2051828452868319,3.61,-0.0033333333333333,48.30929999999999,0.0210333333333333,6.950489191416673,0.1450287327853806
-1.12,1.51,9.12,0.02,0.14,-0.12,1721198953331,10000.0,9.311761380104196,0.1854723699099141,9.311761380104196,0.1854723699099141,3.17,0.0133333333333333,28.281099999999995,0.0169333333333333,5.31799774351212,0.1301281419729542
0.0,1.31,10.89,-0.05,0.22,-0.17,1721198953341,10000.0,10.96850947029723,0.2824889378365107,10.96850947029723,0.2824889378365107,4.066666666666667,-9.251858538542969e-18,35.347433333333335,0.0399,5.945370748181591,0.1997498435543818
-0.67,1.13,9.78,0.04,0.12,-0.23,1721198953351,10000.0,9.867836642344663,0.2624880949681337,9.867836642344663,0.2624880949681337,3.4133333333333327,-0.0233333333333333,31.210833333333333,0.0336333333333333,5.586665672235393,0.1833939293797189
-1.46,-0.27,6.9,-0.08,0.12,-0.16,1721198953361,10000.0,7.05793879259377,0.2154065922853801,7.05793879259377,0.2154065922853801,1.7233333333333334,-0.04,20.45243333333333,0.0208,4.522436658852541,0.1442220510185595
-0.52,0.36,12.97,-0.08,0.21,-0.08,1721198953371,10000.0,12.985411044707057,0.2385372088375312,12.985411044707057,0.2385372088375312,4.2700000000000005,0.0166666666666666,56.9611,0.0280333333333333,7.547257780147701,0.1674315780649914
-0.11,-0.72,11.43,-0.05,0.14,-0.11,1721198953381,10000.0,11.453182963700527,0.1849324200890693,11.453182963700527,0.1849324200890693,3.533333333333333,-0.0066666666666666,46.86103333333333,0.0170333333333333,6.8455119117077965,0.1305118130030126
-1.92,2.08,10.36,0.06,0.09,-0.1,1721198953391,10000.0,10.739757911610484,0.1473091986265623,10.739757911610484,0.1473091986265623,3.5066666666666664,0.0166666666666666,39.22613333333333,0.0104333333333333,6.263076986061511,0.102143689640297
-0.09,0.89,7.27,-0.06,0.21,-0.04,1721198953401,10000.0,7.324827643023417,0.2220360331117451,7.324827643023417,0.2220360331117451,2.69,0.0366666666666666,15.9724,0.0226333333333333,3.9965485109028767,0.1504437879519567
-0.46,0.66,10.53,-0.05,0.08,-0.02,1721198953411,10000.0,10.560686530713804,0.0964365076099295,10.560686530713804,0.0964365076099295,3.576666666666666,0.0033333333333333,36.57523333333333,0.0046333333333333,6.0477461366473815,0.0680685928555404
0.09,2.04,12.22,-0.09,0.24,-0.09,1721198953421,10000.0,12.389435015366924,0.2716615541441224,12.389435015366924,0.2716615541441224,4.783333333333334,0.02,42.42863333333334,0.0363,6.513726531973332,0.1905255888325765
-1.02,1.22,10.61,0.0,0.05,-0.07,1721198953431,10000.0,10.728508750054688,0.0860232526704262,10.728508750054688,0.0860232526704262,3.603333333333333,-0.0066666666666666,38.074433333333324,0.0036333333333333,6.170448389974048,0.060277137733417
-1.46,-0.7,7.69,-0.11,0.12,0.02,1721198953441,10000.0,7.858606746745889,0.1640121946685672,7.858606746745889,0.1640121946685672,1.8433333333333333,0.0099999999999999,25.78203333333333,0.0133,5.077601139645899,0.1153256259467079
0.16,0.19,8.6,0.0,0.13,0.08,1721198953451,10000.0,8.603586461470588,0.1526433752247374,8.603586461470588,0.1526433752247374,2.983333333333333,0.07,23.660433333333334,0.0043,4.86419914614249,0.06557438524302
1.1,-1.27,9.74,-0.13,0.18,-0.06,1721198953461,10000.0,9.883850464267455,0.2299999999999999,9.883850464267455,0.2299999999999999,3.19,-0.0033333333333333,33.581100000000006,0.0264333333333333,5.794920189269219,0.1625833119767626
-1.46,1.62,12.5,0.09,0.03,-0.1,1721198953471,10000.0,12.68881397136864,0.1378404875209022,12.68881397136864,0.1378404875209022,4.22,0.0066666666666666,53.790400000000005,0.0094333333333333,7.334193888901493,0.0971253485622231
-1.39,0.24,8.64,0.0,0.13,0.03,1721198953481,10000.0,8.754387471433967,0.1334166406412633,8.754387471433967,0.1334166406412633,2.4966666666666666,0.0533333333333333,28.96963333333334,0.0046333333333333,5.382344594443331,0.0680685928555404
-1.34,2.4,12.03,0.04,0.14,0.16,1721198953491,10000.0,12.340036466720832,0.2163330765278393,12.340036466720832,0.2163330765278393,4.363333333333333,0.1133333333333333,47.580233333333325,0.0041333333333333,6.897842657913656,0.0642910050732863
1.24,1.51,8.73,-0.02,0.14,0.11,1721198953501,10000.0,8.945982338457863,0.1791647286716891,8.945982338457863,0.1791647286716891,3.826666666666666,0.0766666666666666,18.05023333333334,0.0072333333333333,4.24855661764479,0.0850490054811538
0.78,4.24,12.74,0.08,0.05,0.03,1721198953511,10000.0,13.44966914091198,0.0989949493661166,13.44966914091198,0.0989949493661166,5.920000000000001,0.0533333333333333,37.8772,0.0006333333333333,6.154445547732143,0.0251661147842358
0.59,3.4,7.14,-0.01,0.1,0.04,1721198953521,10000.0,7.930176542801553,0.1081665382639196,7.930176542801553,0.1081665382639196,3.71,0.0433333333333333,10.7977,0.0030333333333333,3.285985392542091,0.055075705472861
0.58,-0.03,12.7,-0.18,0.16,-0.02,1721198953531,10000.0,12.713272592059056,0.2416609194718914,12.713272592059056,0.2416609194718914,4.416666666666667,-0.0133333333333333,51.55323333333333,0.0289333333333333,7.180058031334658,0.1700980109623076
-1.11,0.08,12.82,0.06,-0.03,0.04,1721198953541,10000.0,12.868212774119025,0.0781024967590665,12.868212774119025,0.0781024967590665,3.93,0.0233333333333333,59.62810000000001,0.0022333333333333,7.721923335542772,0.047258156262526
-0.51,-0.08,7.83,-0.08,0.1,0.1,1721198953551,10000.0,7.846999426532412,0.1624807680927192,7.846999426532412,0.1624807680927192,2.4133333333333336,0.04,22.05143333333333,0.0108,4.695895370782162,0.1039230484541326
0.5,0.97,12.54,-0.07,0.1,0.06,1721198953561,10000.0,12.587394488137724,0.1360147050873544,12.587394488137724,0.1360147050873544,4.67,0.03,46.50789999999999,0.0079,6.819670079996539,0.0888819441731559
0.22,-0.79,10.11,-0.07,0.05,-0.0,1721198953571,10000.0,10.143204621814547,0.0860232526704262,10.143204621814547,0.0860232526704262,3.18,-0.0066666666666666,36.27369999999999,0.0036333333333333,6.022765145678519,0.060277137733417
-1.85,1.31,13.75,0.02,0.08,-0.01,1721198953581,10000.0,13.935605476619951,0.0830662386291807,13.935605476619951,0.0830662386291807,4.403333333333333,0.03,68.01653333333334,0.0021,8.247213670891117,0.0458257569495584
-2.04,0.28,10.13,-0.01,0.04,0.12,1721198953591,10000.0,10.337161118992004,0.1268857754044952,10.337161118992004,0.1268857754044952,2.7900000000000005,0.0499999999999999,41.752300000000005,0.0043,6.461601968552381,0.06557438524302
-0.76,2.16,12.45,0.03,0.08,0.26,1721198953601,10000.0,12.658819060244126,0.2736786436680802,12.658819060244126,0.2736786436680802,4.616666666666666,0.1233333333333333,48.15243333333333,0.0146333333333333,6.939195438473637,0.120968315410827
0.8,2.8,9.4,0.02,0.08,0.2,1721198953611,10000.0,9.840731680114036,0.2163330765278393,9.840731680114036,0.2163330765278393,4.333333333333333,0.1,20.253333333333337,0.0084,4.500370355130047,0.0916515138991168
0.95,1.91,5.61,0.01,-0.06,0.09,1721198953621,10000.0,6.001891368560415,0.1086278049120021,6.001891368560415,0.1086278049120021,2.8233333333333337,0.0133333333333333,6.0545333333333335,0.0056333333333333,2.4605961337312823,0.0750555349946513
1.26,-1.34,11.34,-0.16,0.17,0.02,1721198953631,10000.0,11.488202644452263,0.2343074902771996,11.488202644452263,0.2343074902771996,3.753333333333333,0.01,44.85813333333333,0.0273,6.697621468352279,0.165227116418583
-1.49,-0.5,7.03,-0.02,-0.14,0.06,1721198953641,10000.0,7.203540796025244,0.1536229149573721,7.203540796025244,0.1536229149573721,1.68,-0.0333333333333333,21.7119,0.0101333333333333,4.659602987379934,0.1006644591369433
-1.47,0.02,11.92,-0.17,0.14,0.07,1721198953651,10000.0,12.0103163988298,0.2310844001658268,12.0103163988298,0.2310844001658268,3.49,0.0133333333333333,53.8537,0.0264333333333333,7.338508022752308,0.1625833119767626
-0.81,1.04,11.32,0.06,-0.11,0.15,1721198953661,10000.0,11.396495075241337,0.1954482028569206,11.396495075241337,0.1954482028569206,3.85,0.0333333333333333,42.706300000000006,0.0174333333333333,6.535005738329539,0.1320353488022557
-0.17,0.95,11.4,-0.1,0.08,0.15,1721198953671,10000.0,11.440777945576952,0.1972308292331602,11.440777945576952,0.1972308292331602,4.06,0.0433333333333333,40.7203,0.0166333333333333,6.381245959842012,0.128970280814354
0.49,-1.65,10.68,-0.04,-0.04,0.16,1721198953681,10000.0,10.817809390075238,0.1697056274847714,10.817809390075238,0.1697056274847714,3.1733333333333333,0.0266666666666666,43.40743333333333,0.0133333333333333,6.588431781033582,0.1154700538379251
-0.76,-0.31,10.92,0.01,-0.05,0.03,1721198953691,10000.0,10.950803623478963,0.0591607978309961,10.950803623478963,0.0591607978309961,3.283333333333333,-0.0033333333333333,43.789633333333335,0.0017333333333333,6.6173735978357255,0.0416333199893226
0.04,0.61,6.94,0.06,-0.03,0.07,1721198953701,10000.0,6.966871607830878,0.0969535971483265,6.966871607830878,0.0969535971483265,2.53,0.0333333333333333,14.6673,0.0030333333333333,3.829791117019308,0.055075705472861
0.58,3.75,7.57,0.04,0.04,0.16,1721198953711,10000.0,8.46780963413798,0.1697056274847714,8.46780963413798,0.1697056274847714,3.966666666666667,0.08,12.250233333333334,0.0048,3.500033333174605,0.069282032302755
1.36,0.55,3.33,-0.07,-0.04,0.11,1721198953721,10000.0,3.6388184895649855,0.1363818169698585,3.6388184895649855,0.1363818169698585,1.7466666666666668,-4.625929269271485e-18,2.0442333333333336,0.0093,1.4297668807652992,0.0964365076099295
-0.18,1.14,10.2,-0.08,0.0,-0.01,1721198953731,10000.0,10.265086458476617,0.0806225774829855,10.265086458476617,0.0806225774829855,3.72,-0.03,31.92839999999999,0.0019,5.650522099770957,0.0435889894354067
-0.21,-1.95,9.4,-0.1,-0.01,-0.01,1721198953741,10000.0,9.60242677660184,0.1009950493836207,9.60242677660184,0.1009950493836207,2.4133333333333336,-0.04,37.36703333333333,0.0027,6.1128580331407445,0.0519615242270663
-2.41,2.88,15.11,-0.04,-0.04,0.16,1721198953751,10000.0,15.569669232196295,0.1697056274847714,15.569669232196295,0.1697056274847714,5.1933333333333325,0.0266666666666666,80.75123333333335,0.0133333333333333,8.986169002046053,0.1154700538379251
-0.25,1.41,13.38,-0.11,-0.07,0.25,1721198953761,10000.0,13.45641111143681,0.2819574435974337,13.45641111143681,0.2819574435974337,4.846666666666667,0.0233333333333333,55.30223333333335,0.0389333333333333,7.436547137841146,0.1973153144926498
1.02,0.27,18.53,-0.1,-0.02,0.11,1721198953771,10000.0,18.560016163786067,0.15,18.560016163786067,0.15,6.6066666666666665,-0.0033333333333333,106.76503333333336,0.0112333333333333,10.332716648265032,0.1059874206372309
2.03,-5.24,22.56,-0.0,0.07,-0.16,1721198953781,10000.0,23.24934622736734,0.1746424919657298,23.24934622736734,0.1746424919657298,6.449999999999999,-0.03,207.8623,0.0139,14.417430422929044,0.1178982612255159
-2.86,1.51,10.01,0.34,-0.35,0.16,1721198953791,10000.0,10.51949618565452,0.5135172830587107,10.51949618565452,0.5135172830587107,2.8866666666666667,0.05,42.83063333333333,0.1281,6.544511695560893,0.3579106033634656
-1.34,10.32,7.85,0.21,0.18,0.26,1721198953801,10000.0,13.035355768064024,0.3796050579220461,13.035355768064024,0.3796050579220461,5.609999999999999,0.2166666666666666,37.7521,0.0016333333333333,6.144273756921968,0.0404145188432738
4.09,4.0,7.5,0.15,-0.05,0.21,1721198953811,10000.0,9.43282036296674,0.2628687885618983,9.43282036296674,0.2628687885618983,5.196666666666666,0.1033333333333333,3.981033333333333,0.0185333333333333,1.9952526991169148,0.1361371857110809
1.64,1.43,4.19,0.11,-0.14,-0.08,1721198953821,10000.0,4.721292195998888,0.1951922129594313,4.721292195998888,0.1951922129594313,2.42,-0.0366666666666666,2.360700000000001,0.0170333333333333,1.5364569632762255,0.1305118130030126
-1.34,1.84,10.71,-0.07,0.18,-0.22,1721198953831,10000.0,10.949214583704167,0.2927456233660889,10.949214583704167,0.2927456233660889,3.736666666666667,-0.0366666666666666,38.99863333333335,0.0408333333333333,6.24488857653468,0.202072594216369
-1.79,2.31,13.31,0.08,-0.12,0.04,1721198953841,10000.0,13.627042966102367,0.1496662954709576,13.627042966102367,0.1496662954709576,4.61,2.312964634635743e-18,60.97,0.0112,7.808328886515987,0.1058300524425836
-0.03,0.8,8.34,0.02,-0.11,0.25,1721198953851,10000.0,8.378335156819642,0.273861278752583,8.378335156819642,0.273861278752583,3.036666666666666,0.0533333333333333,21.26623333333333,0.0332333333333333,4.6115326447216365,0.1823001188516708
3.14,2.28,9.33,0.09,-0.05,0.22,1721198953861,10000.0,10.10479589106084,0.2428991560298223,10.10479589106084,0.2428991560298223,4.916666666666667,0.0866666666666666,14.793033333333334,0.0182333333333333,3.846171256370851,0.1350308606701939
4.42,1.64,6.75,0.04,-0.05,-0.1,1721198953871,10000.0,8.233377192865635,0.1187434208703791,8.233377192865635,0.1187434208703791,4.27,-0.0366666666666666,6.5449,0.0050333333333333,2.5583002169409284,0.0709459888459758
0.52,1.93,12.74,-0.03,-0.08,-0.37,1721198953881,10000.0,12.895848169081397,0.3797367509209505,12.895848169081397,0.3797367509209505,5.0633333333333335,-0.16,44.69543333333333,0.0336999999999999,6.685464331916919,0.1835755975068581
-3.47,0.62,10.11,0.03,-0.12,-0.25,1721198953891,10000.0,10.706885634954732,0.278926513619627,10.706885634954732,0.278926513619627,2.42,-0.1133333333333333,48.5341,0.0196333333333333,6.966641945729664,0.140118997046558
