AccX,AccY,AccZ,GyrX,GyrY,GyrZ,Time
-10.87,9.72,17.83,0.87,0.06,-0.81,1721228600648
-13.12,19.39,16.11,1.25,-0.49,-0.09,1721228600652
-1.18,3.85,-4.42,0.1,-0.12,1.1,1721228600662
10.32,10.98,-12.52,0.43,0.27,0.98,1721228600672
15.38,-4.83,9.65,-0.81,0.7,-0.01,1721228600682
10.2,-25.57,46.76,-1.13,-0.0,-1.4,1721228600692
-3.67,1.05,8.25,1.26,-0.77,-1.86,1721228600702
-11.82,-12.47,-15.18,-0.27,0.08,-0.89,1721228600712
-17.03,2.06,47.22,-0.47,-0.53,0.57,1721228600722
-6.36,27.55,32.52,0.48,0.55,1.23,1721228600732
10.51,10.67,-6.64,0.06,0.7,0.95,1721228600742
12.99,-19.94,9.52,-1.12,0.2,-0.23,1721228600752
4.86,-4.83,1.7,0.58,-0.61,-1.61,1721228600762
-3.55,-11.72,-6.08,-0.06,-0.37,-0.71,1721228600772
-8.66,1.89,45.34,-0.28,-0.17,0.25,1721228600782
0.53,53.4,32.64,1.8,0.31,0.71,1721228600792
4.78,-2.71,-32.7,0.22,-0.61,0.09,1721228600802
-1.09,-6.22,35.21,-2.23,0.77,-1.23,1721228600812
-11.37,-1.87,37.3,1.23,-0.91,-1.61,1721228600822
-8.51,0.4,-12.6,0.72,-0.84,0.57,1721228600832
-0.4,7.65,18.53,-0.23,1.05,1.29,1721228600842
9.39,5.45,12.93,0.71,-0.2,0.5,1721228600852
13.39,22.24,-5.83,0.6,-0.06,-0.3,1721228600862
6.13,21.65,-21.28,-0.4,-0.13,-0.5,1721228600872
3.55,-60.35,26.82,-1.6,1.78,-1.16,1721228600882
-19.31,0.81,72.84,1.03,-0.77,-0.92,1721228600892
-16.57,19.61,-43.37,2.03,-0.51,0.78,1721228600902
-7.09,-62.25,-29.24,-2.77,1.14,1.1,1721228600912
-15.18,6.9,78.45,0.62,-0.46,0.65,1721228600922
-4.24,38.39,7.79,3.13,-0.67,1.17,1721228600932
12.83,-10.66,-78.45,-1.22,0.67,0.36,1721228600942
13.33,-54.59,78.45,-2.74,2.09,-0.44,1721228600952
18.54,-8.28,76.56,1.35,0.07,-1.11,1721228600962
-9.39,-7.15,-17.66,0.63,-0.39,-0.88,1721228600972
-14.56,-0.25,37.31,-0.85,1.83,-0.67,1721228600982
2.95,30.59,20.78,0.89,-0.59,0.24,1721228600992
-3.49,9.96,-31.3,-0.08,0.75,0.88,1721228601002
10.98,-30.04,-13.93,-1.72,0.84,0.13,1721228601012
3.38,-22.3,29.33,-0.49,-0.84,-1.48,1721228601022
-7.98,7.69,18.44,1.1,-0.43,-1.54,1721228601032
-13.57,2.61,9.22,0.11,0.48,-0.49,1721228601042
-13.04,24.54,40.27,-0.17,-0.01,0.8,1721228601052
0.06,31.9,18.42,0.32,0.33,0.96,1721228601062
12.69,-17.47,-10.71,-0.52,0.14,0.21,1721228601072
11.02,-21.35,-3.52,-0.77,1.02,-0.55,1721228601082
6.54,19.88,16.65,0.6,-0.6,-0.91,1721228601092
3.52,-13.88,1.5,-0.55,0.04,-1.4,1721228601102
-18.45,6.06,39.06,0.18,-0.87,-1.07,1721228601112
-11.97,35.13,7.76,0.9,0.64,0.25,1721228601122
-9.9,-7.76,-19.74,-0.52,0.27,1.34,1721228601132
6.93,-33.09,-1.54,-1.01,1.8,0.83,1721228601142
18.31,3.39,32.07,0.76,-1.01,-0.41,1721228601152
-2.55,21.88,4.98,1.03,-0.75,-0.91,1721228601162
1.14,-7.01,15.54,-0.07,0.81,-1.03,1721228601172
-12.44,-5.94,14.04,0.31,-0.63,0.07,1721228601182
-2.54,11.79,4.24,-0.05,0.72,0.41,1721228601192
4.83,-16.52,1.26,-0.86,-0.35,0.51,1721228601202
0.46,-10.11,18.7,0.11,0.21,-0.45,1721228601212
-0.85,7.78,-0.28,1.19,-0.26,-0.32,1721228601222
2.08,7.87,14.62,-0.09,0.64,-0.13,1721228601232
-12.06,36.74,43.13,-0.3,-0.54,0.27,1721228601242
3.03,-29.28,-27.38,0.0,-0.53,0.03,1721228601252
9.69,-8.63,-27.21,-1.41,0.9,0.09,1721228601262
2.95,19.27,21.46,-0.69,0.62,-0.77,1721228601272
29.65,0.93,58.5,0.58,-0.19,-1.08,1721228601282
-10.18,40.25,30.14,1.31,-0.15,0.01,1721228601292
-4.58,19.61,-27.91,-0.25,0.91,0.3,1721228601302
-5.22,-78.45,-17.16,-2.14,1.02,0.57,1721228601312
2.56,37.45,37.57,0.47,-1.07,0.37,1721228601322
1.67,21.59,-9.09,1.63,-1.11,-0.47,1721228601332
11.31,11.54,-32.81,0.14,-0.21,-0.26,1721228601342
-0.83,-3.29,28.1,-1.85,1.89,-0.0,1721228601352
3.21,-24.9,55.53,-0.62,-0.45,0.52,1721228601362
2.7,26.39,1.67,0.51,0.09,0.2,1721228601372
3.76,10.98,-9.8,-0.06,-0.33,-0.7,1721228601382
-3.22,-25.79,-4.85,-0.08,-0.12,-0.04,1721228601392
-7.4,2.96,3.67,0.65,-0.01,0.23,1721228601402
0.83,-7.94,3.44,-0.14,0.69,0.5,1721228601412
-7.62,-14.5,50.48,-0.34,0.23,0.65,1721228601422
6.53,39.12,24.24,2.67,0.15,0.44,1721228601432
11.78,26.67,-48.66,0.86,-1.29,0.61,1721228601442
5.2,-2.82,23.14,-2.93,2.29,-0.67,1721228601452
1.61,-39.3,78.45,-0.39,-1.58,-1.72,1721228601462
-22.65,32.81,-6.79,2.2,-1.35,-1.53,1721228601472
-20.71,6.86,-59.4,0.36,0.63,0.14,1721228601482
-15.0,-46.32,-19.68,-1.77,-0.34,2.39,1721228601492
17.49,-0.19,78.45,-1.8,2.68,1.82,1721228601502
-4.13,-1.67,62.15,1.1,-0.83,1.0,1721228601512
20.3,37.9,-8.85,1.65,-0.99,0.62,1721228601522
16.85,42.91,-9.88,-0.19,1.52,-0.46,1721228601532
-0.65,-14.67,-10.38,-0.32,-1.21,-0.78,1721228601542
-9.52,-59.43,-39.82,-1.05,0.81,-2.1,1721228601552
-40.26,-49.88,21.82,-0.09,-1.18,-1.26,1721228601562
-26.58,2.1,58.33,0.76,-0.28,0.42,1721228601572
-14.46,28.08,17.0,0.5,0.76,1.98,1721228601582
8.85,-3.72,4.43,-0.4,0.85,1.83,1721228601592
16.0,28.76,0.52,0.59,0.02,1.0,1721228601602
22.31,-20.78,-49.84,0.22,-0.04,-0.2,1721228601612
12.84,-70.55,38.55,-1.81,2.36,-1.46,1721228601622
-0.29,41.28,78.45,0.15,0.55,-1.73,1721228601632
-20.51,-14.59,-55.56,1.5,-0.6,-1.01,1721228601642
-14.66,53.41,-14.51,-1.73,0.54,0.81,1721228601652
17.77,-0.79,12.45,-0.96,1.03,2.01,1721228601662
14.56,-76.79,15.39,-0.66,0.27,0.52,1721228601672
0.57,-3.74,62.11,0.91,-1.0,-1.75,1721228601682
-8.14,1.2,14.89,0.93,-1.42,-1.06,1721228601692
-23.31,-29.09,-16.35,-0.57,1.72,0.19,1721228601702
-6.76,13.73,6.01,0.49,0.07,1.34,1721228601712
6.32,16.55,-16.12,0.1,0.94,1.48,1721228601722
17.58,-5.0,21.82,-1.0,1.04,0.55,1721228601732
12.73,-44.52,24.18,-0.53,-0.29,-0.73,1721228601742
1.83,30.76,9.09,1.3,-0.6,-0.93,1721228601752
-5.46,8.5,-19.02,-0.35,0.18,-0.45,1721228601762
-3.82,-8.76,16.35,-0.99,1.19,0.22,1721228601772
-3.69,-20.92,18.2,-1.03,0.43,0.06,1721228601782
-7.32,-0.56,46.33,-0.49,0.01,-0.23,1721228601792
-8.01,1.21,20.57,0.92,-0.46,-0.32,1721228601802
-5.14,4.31,-34.8,1.7,-0.59,0.79,1721228601812
-0.52,-8.48,-4.73,-0.87,0.84,1.09,1721228601822
6.24,-4.82,36.11,0.0,0.48,0.79,1721228601832
12.84,-11.69,-5.82,0.38,-0.78,0.17,1721228601842
5.99,-17.99,-23.04,-0.83,-0.11,-0.3,1721228601852
-8.22,26.95,55.24,0.07,-0.7,-0.45,1721228601862
-12.56,33.99,36.93,0.43,-0.64,-0.1,1721228601872
-3.99,4.72,-11.27,-0.58,0.14,1.16,1721228601882
12.77,-47.54,-5.32,0.4,0.67,0.88,1721228601892
9.08,28.19,17.89,1.03,-0.47,0.87,1721228601902
11.26,19.18,-57.96,-0.59,0.65,0.14,1721228601912
20.35,-78.45,71.39,-2.28,3.54,-1.27,1721228601922
15.96,24.18,78.45,1.52,-2.54,-1.42,1721228601932
-20.16,47.86,0.21,1.78,0.59,-0.37,1721228601942
-17.29,-14.04,-38.71,-1.22,0.64,1.32,1721228601952
-4.67,-12.72,20.33,-0.96,2.3,1.68,1721228601962
15.49,-21.15,7.97,1.57,-0.44,0.09,1721228601972
8.36,18.41,27.63,1.88,-0.75,-1.19,1721228601982
0.15,30.32,-9.23,0.66,-0.59,-0.94,1721228601992
-9.21,18.23,-29.01,-0.88,1.01,-0.6,1721228602002
-6.93,-20.65,43.56,-2.16,0.92,0.39,1721228602012
0.5,-22.96,36.94,0.47,-0.34,1.08,1721228602022
9.5,15.24,-28.76,1.7,-0.31,0.87,1721228602032
19.83,-33.3,-16.07,-1.86,1.2,-0.72,1721228602042
-12.69,15.37,78.45,-0.21,-1.37,-1.79,1721228602052
5.62,34.41,-18.52,2.26,-1.34,-1.07,1721228602062
-10.81,12.2,-78.45,0.55,0.22,-0.04,1721228602072
-13.8,-28.54,-40.29,-3.35,0.29,0.75,1721228602082
7.26,-66.4,78.45,-3.95,1.92,0.18,1721228602092
2.55,72.86,78.45,3.09,-2.9,-0.23,1721228602102
21.96,30.35,-25.94,2.3,-0.91,-0.26,1721228602112
-6.81,14.37,-78.45,-1.25,-1.2,-0.3,1721228602122
6.47,-44.39,-1.29,-0.57,2.77,-0.51,1721228602132
-58.44,-49.37,2.22,0.23,0.19,-2.02,1721228602142
26.81,53.34,40.14,0.28,2.2,-1.73,1721228602152
-35.35,9.94,-36.87,0.74,-2.23,-0.57,1721228602162
-14.41,12.13,32.19,-0.79,2.3,1.15,1721228602172
17.99,60.83,8.63,1.07,0.14,1.26,1721228602182
-9.41,-12.01,-36.4,1.47,-1.77,0.59,1721228602192
18.92,-52.22,0.82,-2.08,2.47,-0.37,1721228602202
-12.74,40.13,54.86,0.16,-1.46,0.26,1721228602212
41.65,-11.21,1.82,0.51,1.45,-0.63,1721228602222
-0.11,0.98,-5.34,0.59,-0.95,-0.14,1721228602232
-10.23,15.11,24.02,0.5,-0.56,-0.41,1721228602242
-5.23,18.21,5.49,0.54,-0.19,0.48,1721228602252
-5.99,-69.7,-16.38,-0.22,0.67,1.03,1721228602262
-1.0,10.9,-0.57,1.04,0.63,0.08,1721228602272
15.94,-21.97,-11.98,0.4,-0.6,-0.55,1721228602282
-7.66,-0.96,22.99,0.17,-0.36,-0.74,1721228602292
-6.76,27.27,44.52,1.22,-0.46,-0.2,1721228602302
-2.06,20.15,-0.92,0.28,-0.18,0.39,1721228602312
2.37,-6.85,12.13,-0.69,0.69,-0.18,1721228602322
-2.3,-44.26,16.83,0.03,-0.44,-0.15,1721228602332
-7.22,9.55,15.37,0.46,-0.11,-0.01,1721228602342
-8.4,23.93,-14.55,1.43,-0.73,0.37,1721228602352
1.2,13.17,-15.0,0.14,0.04,0.43,1721228602362
6.02,-17.33,14.78,-1.69,0.71,0.39,1721228602372
1.58,-31.47,55.68,-0.86,0.09,-0.24,1721228602382
-4.56,17.86,-0.89,1.28,-0.39,-0.62,1721228602392
-6.13,-13.28,-17.35,0.05,0.5,-0.57,1721228602402
-10.82,29.36,41.7,0.18,-0.41,0.94,1721228602412
8.74,27.69,-14.63,0.11,0.28,1.31,1721228602422
8.5,-39.37,-13.97,-2.01,1.17,0.3,1721228602432
-0.61,-1.87,70.73,-0.12,-0.29,-0.87,1721228602442
-18.31,14.16,-4.1,1.49,-1.07,-0.67,1721228602452
-13.58,-24.65,-37.38,-1.73,0.68,-0.14,1721228602462
-12.23,12.61,73.57,-1.54,0.28,0.88,1721228602472
-8.26,20.14,7.51,2.02,-0.33,0.9,1721228602482
6.01,-14.78,-39.75,-0.2,0.85,0.2,1721228602492
11.48,11.97,26.42,-1.26,1.29,-0.77,1721228602502
15.44,8.32,44.21,1.63,-0.67,-1.17,1721228602512
-11.95,8.14,-19.16,0.35,-0.49,-0.23,1721228602522
-7.96,-23.79,-32.62,-2.15,1.41,0.05,1721228602532
1.03,-15.93,78.45,-0.4,-0.49,0.17,1721228602542
-7.62,1.12,37.34,1.66,-1.07,0.39,1721228602552
1.9,-2.65,-33.97,0.54,1.62,0.49,1721228602562
11.91,21.21,3.52,-0.43,0.64,0.48,1721228602572
-3.75,11.49,33.47,-1.09,0.7,0.04,1721228602582
0.34,-27.59,23.3,-0.45,-0.1,-0.74,1721228602592
-5.39,-2.09,5.77,0.64,-0.76,-0.76,1721228602602
-3.61,3.69,-39.44,0.35,-0.11,0.46,1721228602612
0.99,-36.95,-14.19,-1.61,0.91,0.76,1721228602622
-6.43,9.55,78.45,1.18,-0.13,0.33,1721228602632
13.69,61.26,27.28,1.58,-1.07,0.73,1721228602642
-0.27,23.78,23.21,-1.38,1.35,0.01,1721228602657
2.41,-6.73,44.61,-1.74,0.14,0.18,1721228602661
-2.96,-19.86,-5.01,0.08,-1.1,-0.6,1721228602671
-9.84,8.22,25.74,0.07,-0.1,-1.05,1721228602681
-0.32,-2.31,7.31,1.05,-0.23,1.05,1721228602691
1.95,-10.35,-20.18,-0.03,0.89,0.68,1721228602701
3.75,11.15,-9.4,0.2,0.18,-0.21,1721228602711
4.55,-36.26,11.67,-0.24,1.21,-0.74,1721228602721
-10.82,14.16,72.19,1.11,-0.48,-0.64,1721228602731
-8.37,50.41,27.38,0.78,0.57,0.34,1721228602741
0.25,-7.42,-30.45,-0.09,-0.07,0.97,1721228602751
7.23,-24.52,12.37,-0.69,0.5,0.73,1721228602761
12.32,6.92,-10.65,0.51,-0.62,-0.44,1721228602771
5.89,1.96,5.54,-0.23,1.04,-1.14,1721228602781
-12.32,-2.4,41.86,0.61,-1.03,-1.14,1721228602791
-13.26,-15.19,6.68,0.64,-0.05,-0.52,1721228602801
-16.92,16.2,27.04,0.27,0.04,0.66,1721228602811
0.28,38.14,12.26,0.95,0.52,1.9,1721228602821
15.85,-9.62,-44.57,0.1,0.02,1.42,1721228602831
34.77,-64.0,35.12,-2.64,1.97,-0.83,1721228602841
-0.77,46.68,67.65,0.87,-1.84,-1.99,1721228602851
-5.94,26.59,-22.48,2.07,-1.47,-0.22,1721228602861
-6.71,-28.52,-21.46,-2.11,1.19,0.48,1721228602871
7.36,27.5,75.46,0.08,1.55,0.82,1721228602881
-7.34,-1.52,-0.85,-0.97,-0.38,0.51,1721228602891
-3.99,-15.98,5.2,-0.98,0.42,-0.66,1721228602901
-4.06,29.95,40.85,1.4,-0.38,-0.54,1721228602911
-1.23,20.75,-42.31,0.64,-0.0,0.77,1721228602921
11.11,18.5,-33.53,-0.27,1.27,0.97,1721228602931
11.91,-9.66,-1.89,-1.9,0.42,0.47,1721228602941
-2.06,-52.97,47.18,-1.05,-0.85,-1.8,1721228602951
-9.2,43.78,78.45,2.28,-1.86,-1.06,1721228602961
-11.78,-5.42,-27.22,0.66,1.44,0.04,1721228602971
7.81,12.82,-19.56,-1.5,0.61,1.1,1721228602981
14.64,46.53,31.93,-0.01,0.49,0.72,1721228602991
21.01,25.82,5.08,0.55,-0.92,-0.04,1721228603001
4.99,-19.78,-51.35,0.12,-0.35,-0.79,1721228603011
-4.98,-23.41,-11.37,-1.81,0.79,-0.91,1721228603021
-15.62,17.99,68.46,-0.48,-0.71,-0.47,1721228603031
-5.42,8.91,49.52,0.83,-0.14,-0.38,1721228603041
-5.96,13.71,-1.34,0.24,-0.29,0.81,1721228603051
10.29,10.33,-20.79,-0.46,0.68,1.76,1721228603061
17.49,-34.99,3.19,-1.08,1.05,1.07,1721228603071
5.41,-24.51,66.81,-0.66,-0.17,-1.36,1721228603081
-5.82,76.57,1.22,2.23,-0.84,-1.9,1721228603091
-6.28,-4.98,-49.64,1.61,0.07,-0.95,1721228603101
-16.35,-1.9,4.35,-2.51,-0.28,0.64,1721228603111
-9.12,10.95,62.46,-0.64,0.6,1.05,1721228603121
-3.33,-47.71,22.17,-0.54,0.19,0.7,1721228603131
-12.43,-6.87,-17.58,-1.0,0.32,0.16,1721228603141
8.7,2.57,10.69,-0.07,0.14,0.68,1721228603151
7.01,-17.38,-4.13,0.64,-0.38,1.31,1721228603161
22.86,8.66,17.41,0.06,1.63,-0.96,1721228603171
3.91,78.07,35.69,1.54,-1.55,-1.11,1721228603181
-8.22,1.48,-13.1,-0.26,0.1,-0.79,1721228603191
-14.3,-53.51,-53.39,-1.06,1.0,0.49,1721228603201
-29.59,-19.8,32.61,0.82,-2.06,2.32,1721228603211
10.73,42.79,44.8,0.76,-0.54,2.45,1721228603221
18.14,-32.15,-24.16,-0.3,1.3,1.09,1721228603231
17.16,-8.77,27.43,-0.99,0.62,0.25,1721228603241
-3.95,-14.5,47.27,0.14,-0.43,-0.34,1721228603251
-2.66,-4.67,10.97,-0.08,-0.04,-1.48,1721228603261
-10.53,54.18,4.87,1.29,-0.16,-0.73,1721228603271
-18.68,18.93,-19.79,0.27,-0.35,0.38,1721228603281
-8.74,-18.16,-28.75,-1.73,1.05,0.35,1721228603291
-6.53,-49.45,43.92,-1.09,-0.64,0.59,1721228603301
-9.82,-4.93,64.18,0.32,0.25,0.06,1721228603311
-0.79,26.08,-22.13,1.9,0.25,0.62,1721228603321
4.82,-4.99,-36.82,-1.15,0.41,1.64,1721228603331
9.99,22.8,78.45,-0.89,1.15,0.32,1721228603341
8.86,78.45,78.45,-0.51,-0.15,-0.2,1721228603351
-14.12,-38.93,-54.32,1.42,-1.42,-1.47,1721228603361
-52.6,-13.66,-75.93,0.09,-0.25,-0.67,1721228603371
13.44,17.53,26.31,-0.85,0.79,0.5,1721228603381
-7.65,5.11,17.6,0.31,-2.32,1.63,1721228603391
-4.63,23.33,20.73,-0.84,3.07,0.28,1721228603401
5.26,42.64,8.82,1.22,-0.46,-0.47,1721228603411
-1.47,-46.99,-27.73,-1.37,-0.83,-0.94,1721228603421
-26.7,-39.48,57.42,-0.77,2.13,0.04,1721228603431
-3.16,35.18,64.16,0.67,2.67,0.94,1721228603441
-6.33,-0.24,-54.02,2.83,-1.2,2.17,1721228603451
14.8,-4.03,-35.92,-2.16,2.29,1.1,1721228603461
8.25,1.48,78.45,-2.7,4.14,-0.58,1721228603471
41.7,68.02,63.43,0.16,-0.22,-2.28,1721228603481
20.88,21.26,-47.89,0.98,-1.59,-2.01,1721228603491
-15.86,44.53,-69.01,-1.28,-1.22,-0.06,1721228603501
8.28,-16.09,-34.19,-1.58,4.37,1.01,1721228603511
-19.05,-77.72,77.57,-2.24,1.72,1.4,1721228603521
-23.33,78.45,78.45,2.13,-4.03,0.09,1721228603531
54.76,78.45,-19.82,4.37,-1.43,0.8,1721228603541
10.61,6.76,-78.45,-0.22,-0.1,0.28,1721228603551
16.17,-74.26,-15.43,-1.49,-1.62,-0.69,1721228603561
43.33,-21.96,20.43,-0.72,4.37,-4.37,1721228603571
-42.62,78.45,-17.7,2.68,-0.11,0.86,1721228603581
-6.95,-65.58,-78.45,4.37,0.3,3.03,1721228603591
10.8,-39.26,-40.21,-0.2,1.3,2.58,1721228603601
-64.02,-40.14,78.45,-2.07,4.37,0.15,1721228603611
53.56,78.45,-28.0,4.37,-4.37,2.09,1721228603621
18.03,-32.77,-78.45,1.02,4.37,0.73,1721228603631
17.21,-10.41,-25.59,-4.37,-1.26,-0.43,1721228603641
51.48,41.33,-2.38,-0.36,1.37,-1.37,1721228603651
4.37,-24.62,-25.46,3.51,-1.64,-3.26,1721228603661
-17.1,1.13,-24.36,-0.75,-1.08,-2.84,1721228603671
-25.86,61.29,46.99,1.51,-0.43,0.16,1721228603681
-28.53,-23.5,-37.7,1.14,1.08,1.7,1721228603691
4.72,-0.68,17.55,-1.36,1.23,2.94,1721228603701
11.67,69.81,72.16,0.06,1.85,2.58,1721228603711
34.65,-44.99,-32.64,0.83,-1.23,0.71,1721228603721
9.65,-1.47,-31.09,-2.53,-0.73,-2.08,1721228603731
-0.98,25.3,57.65,1.13,-1.86,-3.41,1721228603741
-5.96,-22.02,-0.56,2.2,-2.07,-2.03,1721228603751
-33.0,-0.23,-63.14,1.36,-0.25,-0.45,1721228603761
-26.81,-22.48,75.6,-1.98,2.21,1.8,1721228603771
-14.52,35.24,78.45,0.04,2.51,2.97,1721228603781
8.94,-66.99,-27.0,0.44,1.33,1.07,1721228603791
17.29,3.09,-21.94,0.06,-1.32,-1.36,1721228603801
11.85,18.83,3.08,1.06,-0.32,-0.86,1721228603811
6.47,11.62,-9.26,0.52,-1.15,-0.81,1721228603821
3.85,15.93,-32.22,-0.35,-0.39,-0.26,1721228603831
-4.29,-78.45,61.18,-2.58,1.61,-1.15,1721228603841
-11.95,10.72,78.45,1.64,-2.07,-0.69,1721228603851
-9.27,-3.56,-38.42,2.77,-0.16,0.14,1721228603861
5.03,5.06,-51.96,-0.84,-0.18,1.17,1721228603871
1.98,69.85,27.84,0.08,0.37,0.15,1721228603881
12.7,1.1,7.84,0.82,-1.09,0.54,1721228603891
-7.77,-37.43,-39.93,-2.14,-0.24,0.56,1721228603901
4.23,10.8,77.29,0.83,0.44,-0.9,1721228603911
-0.77,14.3,15.65,1.2,0.34,-0.58,1721228603921
-2.82,-9.69,-53.02,0.54,-0.19,-0.81,1721228603931
4.82,37.28,40.99,-1.02,1.64,0.5,1721228603941
14.57,56.31,51.35,0.82,0.95,1.13,1721228603951
-1.65,-75.38,-69.88,0.86,-1.08,0.36,1721228603961
1.06,-66.98,2.51,-1.1,0.3,-0.44,1721228603971
-14.58,40.36,78.45,-0.57,-0.26,-0.41,1721228603981
-55.44,49.26,-6.7,1.58,0.21,0.21,1721228603991
-5.95,-23.0,-49.86,-1.79,0.17,-0.03,1721228604001
-23.9,5.77,74.24,-2.19,0.54,0.02,1721228604011
6.84,13.14,64.68,2.1,1.84,0.7,1721228604021
6.41,-30.55,-78.45,2.57,-1.09,1.55,1721228604031
12.84,18.68,-47.41,-2.49,1.29,1.06,1721228604041
25.38,21.36,78.36,-0.25,2.11,-1.65,1721228604051
-3.05,-21.77,41.27,0.19,0.18,-1.39,1721228604061
-15.48,0.43,-24.33,-0.25,-1.74,-0.99,1721228604071
-14.3,26.78,1.35,-0.38,0.49,0.73,1721228604081
-1.2,-31.32,4.34,-1.47,1.45,1.06,1721228604091
-4.8,-40.6,57.74,-0.98,-0.33,-0.72,1721228604101
-13.48,31.66,54.57,-0.76,0.27,-0.52,1721228604111
-3.27,-0.42,-29.88,1.09,-0.34,0.75,1721228604121
5.87,-45.83,-38.22,-0.61,0.55,0.56,1721228604131
11.63,17.22,53.59,-2.33,1.92,-0.56,1721228604141
21.1,78.45,68.43,0.51,-1.09,-0.47,1721228604151
-7.58,-32.28,-24.22,-0.44,-1.17,-0.67,1721228604161
-8.52,-2.83,-8.67,-2.47,1.19,-0.74,1721228604171
-3.11,15.95,28.79,1.15,-1.45,0.6,1721228604181
0.93,-20.21,-14.98,1.42,0.68,1.42,1721228604191
19.64,1.64,-33.2,1.0,0.18,1.09,1721228604201
11.54,2.9,45.72,-0.78,1.36,-1.03,1721228604211
15.44,75.85,78.45,-0.28,-2.15,-1.95,1721228604221
-6.73,-22.98,-13.3,1.63,-0.67,-2.48,1721228604231
-19.89,-25.11,-37.34,-0.15,0.18,0.15,1721228604241
-8.04,-19.28,0.06,-0.29,1.78,2.37,1721228604251
7.12,2.58,22.98,1.59,0.33,2.15,1721228604261
20.4,-25.46,-10.3,0.62,-0.76,0.96,1721228604271
26.27,23.07,38.11,-0.19,0.43,-1.77,1721228604281
5.94,47.41,38.81,0.74,-2.23,-2.06,1721228604291
-13.73,19.85,-61.05,1.82,-0.82,-0.8,1721228604301
-16.75,-2.09,-36.8,-0.23,0.5,0.87,1721228604311
-14.31,30.75,-10.69,0.29,-0.22,1.78,1721228604321
6.54,-70.17,-19.97,-3.2,0.09,0.72,1721228604331
0.64,24.19,78.45,-0.13,-0.14,-1.23,1721228604341
5.91,22.86,8.17,2.98,-1.86,-1.54,1721228604351
-4.24,-25.18,-62.39,0.0,0.55,0.08,1721228604361
-17.79,-32.94,78.45,-1.04,3.63,1.4,1721228604371
12.43,0.09,36.59,-0.16,-1.14,2.02,1721228604381
1.8,-6.28,-31.92,0.01,-0.51,1.1,1721228604391
16.36,-3.41,41.32,-0.38,1.16,-0.52,1721228604401
20.34,72.93,9.11,0.06,-0.54,-0.85,1721228604411
-13.81,45.7,-26.58,0.95,0.06,-1.03,1721228604421
-2.26,-52.29,-0.88,-2.36,-0.25,-1.3,1721228604431
-13.67,12.93,57.25,-2.53,1.12,-0.82,1721228604441
-15.27,3.59,63.42,0.72,2.38,0.37,1721228604451
-13.07,-11.81,-13.1,0.52,-1.13,1.77,1721228604461
-0.78,15.95,-25.5,0.98,0.2,2.45,1721228604471
21.68,14.36,-11.3,0.88,0.85,1.42,1721228604481
29.93,56.93,-2.52,1.47,-0.01,0.58,1721228604491
27.15,-20.7,1.82,-2.25,0.09,-0.87,1721228604501
-25.96,-32.0,78.45,-1.79,-2.58,-2.41,1721228604511
-12.07,1.57,12.43,2.37,-1.39,-2.53,1721228604521
-23.82,-54.2,-63.7,1.35,-0.17,0.13,1721228604531
-18.61,-12.29,-34.3,-3.94,1.8,2.39,1721228604541
4.8,78.45,78.45,-1.31,-0.46,3.4,1721228604551
7.3,-29.72,-17.93,-0.33,0.09,2.31,1721228604561
21.35,30.52,29.54,-2.47,-0.47,0.32,1721228604571
1.51,63.19,24.32,-0.11,-1.28,-0.19,1721228604581
15.68,-43.77,-38.22,3.31,-1.44,-1.28,1721228604591
13.67,-42.89,-78.45,1.6,0.74,-0.76,1721228604601
-4.74,-14.24,-14.08,-1.84,0.04,-0.64,1721228604611
-25.1,-27.59,78.45,-1.71,-1.03,-0.87,1721228604621
67.44,78.45,1.56,1.13,1.07,-1.0,1721228604631
10.89,5.07,-21.58,2.03,0.92,1.08,1721228604641
11.81,-10.99,-77.2,2.34,-1.14,1.81,1721228604651
9.31,-78.45,7.14,0.34,-4.37,-1.07,1721228604666
48.46,-46.16,78.09,-1.25,4.37,-0.79,1721228604670
-26.37,14.17,42.93,1.72,-1.6,-0.03,1721228604680
-3.59,-7.22,-8.09,0.8,-2.06,-0.38,1721228604690
-17.05,-56.17,38.27,-1.63,-0.55,-0.43,1721228604700
-21.74,71.09,78.45,0.5,1.67,1.87,1721228604710
9.22,-0.77,2.04,0.47,1.22,2.43,1721228604720
13.09,-27.14,-40.08,-0.78,-0.95,0.21,1721228604730
27.65,-63.76,56.87,-0.11,0.83,-1.76,1721228604740
12.99,24.92,-0.99,0.82,-1.84,-1.06,1721228604750
-19.53,-49.38,-65.83,0.23,1.04,-1.13,1721228604760
-2.17,-39.34,7.54,-2.45,0.75,-1.16,1721228604770
56.91,27.89,74.85,0.71,-0.24,-0.16,1721228604780
-0.68,-1.21,33.67,-1.4,0.84,1.91,1721228604790
-26.18,39.55,-16.12,2.34,-0.36,2.27,1721228604800
32.46,19.39,-27.21,0.8,1.08,1.45,1721228604810
23.47,-19.26,-42.79,-0.66,0.45,-0.53,1721228604820
-3.62,-49.57,28.16,-1.06,-0.51,-3.66,1721228604830
3.66,3.85,78.45,1.28,-3.3,-3.21,1721228604840
-20.29,11.72,-3.59,1.23,0.72,-0.72,1721228604850
-23.43,-39.26,-59.93,0.53,-0.12,1.01,1721228604860
-34.65,58.29,34.83,-0.81,1.87,1.39,1721228604870
-7.14,3.42,5.54,-2.03,1.98,1.17,1721228604880
-3.77,-48.95,29.82,1.09,-1.2,-0.24,1721228604890
8.03,33.98,-4.69,1.93,-0.24,0.78,1721228604900
6.51,-31.43,-59.02,-0.48,0.98,1.4,1721228604910
30.56,-20.6,78.38,-1.84,2.72,-0.81,1721228604920
6.64,78.45,67.59,0.57,-2.57,-0.24,1721228604930
-7.63,-78.45,-78.45,2.13,0.16,-0.89,1721228604940
-41.8,2.78,-53.6,-4.37,2.15,-0.8,1721228604950
-18.44,78.45,78.45,0.31,-0.17,-0.09,1721228604960
-44.39,10.58,7.69,2.25,0.74,0.92,1721228604970
1.71,-23.33,-61.3,-1.94,-1.35,0.37,1721228604980
-2.55,-47.57,78.45,-2.3,1.86,-0.74,1721228604990
-21.82,8.95,54.51,0.71,0.8,0.81,1721228605000
-19.86,-38.52,-67.28,0.38,-1.26,0.71,1721228605010
6.32,11.17,31.39,-0.78,4.01,-1.22,1721228605020
-25.86,71.13,41.41,0.14,-1.79,-0.66,1721228605030
-12.66,-3.99,-35.83,-0.34,0.57,-0.55,1721228605040
2.8,19.8,8.69,-0.05,0.76,0.41,1721228605050
-5.68,36.56,-14.72,1.15,-0.34,0.68,1721228605060
8.04,-25.27,-35.84,-1.62,0.28,-0.96,1721228605070
-12.73,-78.45,33.16,-1.49,-1.31,-1.94,1721228605080
-15.77,63.02,78.45,1.09,-1.37,-0.45,1721228605090
8.0,12.86,-36.86,1.26,-0.81,0.24,1721228605100
4.26,38.64,-76.02,-0.82,0.99,0.39,1721228605110
-6.09,-78.45,54.58,-4.37,1.02,0.39,1721228605120
13.26,26.93,78.45,-1.79,1.67,-0.44,1721228605130
4.51,65.41,-5.89,0.85,1.42,0.82,1721228605140
11.33,20.74,-67.72,2.24,-0.81,0.15,1721228605150
8.0,-26.9,-64.08,-0.48,-4.12,-0.13,1721228605160
19.8,-5.72,65.77,-3.24,4.37,-0.14,1721228605170
78.45,73.14,-5.53,3.43,-2.43,-1.41,1721228605180
-3.16,-42.36,-25.06,0.37,1.33,-0.58,1721228605190
4.55,5.24,-15.83,-1.45,-1.64,0.54,1721228605200
4.49,46.56,24.41,0.66,-0.57,0.85,1721228605210
-1.83,-9.06,31.1,1.06,-0.39,-0.46,1721228605220
0.77,46.56,17.79,1.14,-0.21,-0.56,1721228605230
-6.48,49.22,-11.54,1.16,-0.27,0.09,1721228605240
-18.59,-78.45,-43.4,-2.26,0.72,0.2,1721228605250
1.31,-78.45,77.58,-0.17,2.93,0.79,1721228605260
21.12,56.66,78.45,2.34,1.06,1.19,1721228605270
36.48,-47.92,-48.56,3.41,-2.11,-0.42,1721228605280
3.21,-78.45,-44.62,-3.79,-1.71,-1.86,1721228605290
-78.45,78.45,72.41,2.4,0.82,-2.57,1721228605300
29.7,5.27,5.62,3.82,-2.59,-2.02,1721228605310
-64.58,10.59,-64.26,0.09,-0.38,1.05,1721228605320
7.64,-22.49,-70.3,-3.74,1.75,0.92,1721228605330
-31.11,78.45,78.45,2.09,-1.27,0.27,1721228605340
1.99,-39.19,-27.07,2.01,-0.12,-0.37,1721228605350
3.68,7.43,49.55,-0.07,-0.22,-1.51,1721228605360
6.76,13.96,-7.69,1.99,-1.61,-0.55,1721228605370
-3.02,-42.56,-71.74,-0.22,0.49,-0.58,1721228605380
-17.65,-57.42,78.45,-1.02,3.78,0.22,1721228605390
10.12,56.8,72.03,2.13,-1.47,0.5,1721228605400
10.91,43.49,-58.16,2.1,-1.42,0.56,1721228605410
4.53,-11.16,-78.45,-1.56,0.02,0.4,1721228605420
8.08,-70.48,-11.93,-0.37,4.37,0.1,1721228605430
-17.05,18.41,78.45,-0.13,-1.9,-2.39,1721228605440
51.94,47.34,78.45,1.36,-3.09,1.32,1721228605450
-19.89,-78.45,-78.45,4.37,-0.07,0.73,1721228605460
-15.81,75.2,-12.66,-0.57,-4.37,0.57,1721228605470
18.44,-13.12,-27.42,-0.77,4.37,-1.08,1721228605480
-33.12,78.45,45.56,-0.17,-4.37,-1.87,1721228605490
3.25,-13.59,78.45,0.21,3.56,-2.07,1721228605500
30.02,46.19,-78.45,0.92,-3.12,0.1,1721228605510
-7.74,-78.45,53.98,-1.25,4.37,2.45,1721228605520
-38.75,7.22,27.97,-0.77,4.37,1.54,1721228605530
41.88,-1.76,-50.22,3.31,-0.8,-0.33,1721228605540
7.38,-17.24,-78.45,-1.4,-1.47,-1.08,1721228605550
52.99,-78.45,78.45,-2.81,4.37,-2.1,1721228605560
-10.06,78.45,78.45,-0.46,0.28,0.31,1721228605570
-0.21,-13.64,-1.65,4.37,-1.41,-1.22,1721228605580
-3.32,-10.04,-70.38,-0.14,-1.45,-0.74,1721228605590
-43.01,7.2,78.45,0.81,-1.99,2.05,1721228605600
3.38,-23.31,1.43,0.36,0.91,0.96,1721228605610
15.79,-40.82,59.0,-1.89,0.94,-0.47,1721228605620
8.6,39.16,62.97,1.35,-1.87,-1.74,1721228605630
-6.62,-40.02,-32.17,1.76,-1.18,-0.71,1721228605640
-15.17,78.45,-26.37,-2.05,-0.45,-0.51,1721228605650
-25.58,-59.05,78.45,-1.07,1.18,0.15,1721228605660
-0.05,-11.48,5.39,1.58,-1.05,0.5,1721228605670
0.7,-20.82,-63.54,0.43,-1.23,0.31,1721228605680
4.05,-10.51,60.67,-2.34,2.32,0.56,1721228605690
-0.54,37.42,69.03,2.0,-1.12,1.39,1721228605700
23.12,-31.95,-28.28,1.43,0.05,0.29,1721228605710
33.89,54.25,-0.49,-3.63,1.05,-2.05,1721228605720
3.55,78.45,1.81,2.0,-2.69,-2.9,1721228605730
-6.19,-23.97,-63.2,2.29,-0.35,-0.17,1721228605740
0.01,-45.05,-78.45,-0.95,-0.88,-0.09,1721228605750
19.46,-55.31,63.86,-1.14,4.37,-0.42,1721228605760
23.15,65.87,78.45,-0.61,1.64,0.25,1721228605770
13.43,-34.82,-58.03,1.78,0.99,0.13,1721228605780
-14.76,40.48,-36.98,1.31,-1.64,-0.7,1721228605790
4.51,-36.81,-70.07,-1.15,-0.69,-1.01,1721228605800
-6.45,-78.45,78.45,-3.09,2.59,-1.86,1721228605810
11.51,72.01,4.91,-1.05,0.52,-1.28,1721228605820
4.82,31.43,-12.45,1.39,-0.22,1.28,1721228605830
11.64,32.88,1.53,0.37,1.06,1.65,1721228605840
15.79,-18.42,12.56,-0.68,0.5,1.25,1721228605850
17.59,-9.12,9.7,-0.72,0.44,-0.95,1721228605860
26.15,48.12,2.74,1.13,-0.31,-2.53,1721228605870
-2.19,24.8,-24.13,0.52,-0.7,-1.39,1721228605880
-6.24,-22.26,-30.01,-1.87,-0.09,-0.95,1721228605890
-19.5,-48.0,15.75,-0.42,-0.69,-0.62,1721228605900
-8.84,52.26,60.25,2.25,-0.7,1.05,1721228605910
9.32,-14.38,-31.21,0.77,0.94,1.25,1721228605920
13.56,25.44,0.78,-1.92,0.5,-0.23,1721228605930
-11.12,12.95,33.67,0.14,-0.35,-1.09,1721228605940
-5.05,-7.32,-26.6,1.92,-0.69,-0.87,1721228605950
-5.36,-30.77,-26.43,-4.18,1.49,-0.24,1721228605960
-15.59,38.72,78.45,-0.08,0.86,-0.86,1721228605970
3.12,36.15,5.31,2.05,0.39,0.53,1721228605980
5.11,-61.84,-62.51,-2.03,1.36,1.08,1721228605990
-2.71,8.69,78.45,-2.05,1.58,0.41,1721228606000
12.03,35.44,10.59,1.24,0.12,0.24,1721228606010
16.35,-30.71,-55.34,1.83,-1.13,-0.86,1721228606020
7.8,-40.76,-12.51,-2.92,-0.3,-1.39,1721228606030
-51.32,78.45,78.45,-0.43,-0.19,-0.23,1721228606040
-16.47,-26.35,-3.29,0.29,0.57,0.22,1721228606050
-8.11,26.73,-0.82,-1.24,0.09,0.84,1721228606060
-0.65,29.32,27.02,0.8,0.42,0.34,1721228606070
19.43,-38.6,26.11,0.72,-1.05,-0.15,1721228606080
-3.22,-23.97,11.01,-0.59,-0.64,-0.38,1721228606090
12.52,45.24,-26.79,1.54,-0.38,0.05,1721228606100
0.38,-46.81,-30.14,0.1,-0.56,-0.65,1721228606110
-4.82,-14.16,36.58,-1.93,1.8,-1.1,1721228606120
41.85,78.45,58.51,3.72,-0.62,-0.89,1721228606130
-7.2,-4.8,-14.97,-1.12,0.02,0.92,1721228606140
-8.26,-36.27,22.34,-2.32,0.91,-0.47,1721228606150
-8.03,29.09,62.63,1.53,-0.64,0.22,1721228606160
-9.8,-33.51,-60.96,0.87,-0.93,0.21,1721228606170
14.68,19.74,-14.63,-3.35,1.82,0.63,1721228606180
-0.57,54.59,60.6,0.92,-0.46,1.11,1721228606190
14.19,52.61,2.37,2.18,-0.49,0.11,1721228606200
8.48,-23.17,-64.25,0.28,-0.37,-0.93,1721228606210
-6.04,-78.45,-43.29,-2.73,-1.32,-0.68,1721228606220
5.71,50.75,78.45,-1.02,0.65,-2.04,1721228606230
15.93,43.25,78.45,1.73,-0.49,-1.07,1721228606240
-24.7,-78.45,-69.68,4.37,-1.58,0.6,1721228606250
5.03,17.75,-54.22,-3.96,-0.62,2.61,1721228606260
45.21,-25.85,62.81,-3.85,4.37,0.47,1721228606270
-26.49,-16.36,78.45,1.9,-2.82,0.11,1721228606280
7.2,6.28,-0.44,0.81,0.41,-0.63,1721228606290
6.52,-1.69,-57.98,-0.6,-0.92,-0.74,1721228606300
17.92,-29.05,78.45,-3.31,3.22,-0.64,1721228606310
5.01,19.49,78.45,1.23,2.0,-0.19,1721228606320
-3.28,-56.53,-78.45,3.79,-1.17,-0.47,1721228606330
-11.4,-42.32,-71.5,-2.68,0.81,0.04,1721228606340
15.19,-78.45,78.45,-2.67,4.37,0.47,1721228606350
42.29,78.45,-7.59,1.83,-2.85,1.31,1721228606360
-6.02,-12.22,-72.0,2.67,-1.76,-0.09,1721228606370
-24.84,-54.51,-78.45,-3.69,0.46,-0.86,1721228606380
12.2,-49.41,9.61,-0.72,4.37,0.14,1721228606390
-24.02,11.3,78.45,-1.93,-1.4,-0.51,1721228606400
-2.84,23.92,-4.25,4.37,-3.06,0.52,1721228606410
2.75,-2.41,-78.45,2.59,-1.12,1.67,1721228606420
11.96,-42.4,-25.22,-1.41,-4.37,1.47,1721228606430
-43.29,6.65,-21.41,0.37,2.72,-2.12,1721228606440
50.22,49.02,38.61,4.37,-3.78,-0.19,1721228606450
2.05,-26.63,-67.4,2.76,-0.85,-1.8,1721228606460
-50.5,-42.47,-64.6,-0.12,-2.13,-0.52,1721228606470
56.83,-43.01,40.67,-0.67,1.41,-0.66,1721228606480
-12.56,47.92,78.45,2.2,-1.27,1.73,1721228606490
-6.31,-44.19,-45.3,1.87,-2.22,2.18,1721228606500
32.05,-31.3,45.6,-4.37,4.37,1.43,1721228606510
-78.45,5.09,78.45,-2.68,-2.68,0.82,1721228606520
23.86,-31.38,-47.57,3.25,-0.04,-0.97,1721228606530
-1.7,-9.08,-78.45,3.28,-2.81,-1.04,1721228606540
16.12,-46.99,-32.13,-0.91,2.66,-0.53,1721228606550
-78.45,78.45,38.56,0.73,1.07,-2.94,1721228606560
-13.98,78.45,78.45,1.95,-4.37,0.8,1721228606570
-23.28,-78.45,-78.45,3.03,2.7,2.33,1721228606580
56.39,61.0,-64.45,0.7,-3.77,1.27,1721228606590
43.86,-10.33,-44.53,-0.47,4.37,-0.87,1721228606600
-11.47,-33.47,12.49,-4.37,2.72,-1.98,1721228606610
78.45,78.45,78.45,0.76,-3.39,-3.68,1721228606620
-11.8,15.55,23.37,3.5,-3.13,-1.28,1721228606630
-24.97,-1.7,-78.45,0.95,2.22,1.94,1721228606640
-29.58,-27.2,-78.45,-0.52,-0.56,3.06,1721228606650
72.38,47.83,39.89,-0.93,3.7,0.89,1721228606660
24.76,5.95,12.67,1.32,-2.75,-0.31,1721228606675
36.74,-52.44,21.43,0.76,-0.89,-0.28,1721228606679
13.56,9.02,29.01,-3.22,3.43,-0.76,1721228606689
0.03,46.47,7.78,-0.01,0.54,-0.29,1721228606699
-8.35,-25.89,-23.24,-0.06,-0.34,-0.25,1721228606709
-3.2,-32.17,41.39,-1.16,1.58,-0.79,1721228606719
-11.11,14.02,4.31,1.71,-0.77,-0.23,1721228606729
-3.86,-7.04,-60.33,-1.32,-0.32,0.92,1721228606739
-4.29,5.17,78.45,-1.2,0.87,0.64,1721228606749
-57.42,16.53,78.45,0.06,0.1,1.19,1721228606759
3.84,-78.45,-78.45,3.82,-1.37,-0.05,1721228606769
8.46,10.0,-64.34,-2.24,0.79,0.18,1721228606779
40.03,39.05,23.33,-1.46,3.84,-0.84,1721228606789
23.83,9.49,16.23,1.91,-0.9,-0.48,1721228606799
0.72,-23.32,-49.71,0.33,-0.78,-1.29,1721228606809
-25.44,-34.9,27.08,-0.65,-0.76,-2.47,1721228606819
-24.71,35.72,78.45,-0.26,1.9,-1.41,1721228606829
-13.57,78.45,31.5,0.91,2.31,0.14,1721228606839
-13.18,19.05,17.17,0.89,-1.24,1.97,1721228606849
9.41,-78.45,-42.55,-1.98,1.61,1.52,1721228606859
17.15,0.33,44.76,1.24,2.21,0.14,1721228606869
5.68,-9.96,-36.61,0.69,-0.57,0.45,1721228606879
4.72,-62.28,-38.94,-0.78,0.99,-2.61,1721228606889
-1.71,48.17,45.27,0.63,-2.16,-3.36,1721228606899
-23.57,44.62,-0.21,1.11,0.81,-0.28,1721228606909
-15.0,-44.28,-25.66,-2.05,1.48,1.32,1721228606919
16.02,-0.14,54.54,-0.97,1.3,1.14,1721228606929
11.22,-5.32,-8.21,0.38,-0.74,0.31,1721228606939
18.51,-34.77,38.0,0.17,0.33,-0.87,1721228606949
6.49,-17.27,62.49,1.78,-0.52,-0.53,1721228606959
1.81,-2.48,7.39,-0.28,0.42,-1.01,1721228606969
-21.69,23.36,-3.45,0.17,0.0,-1.16,1721228606979
-11.38,-11.66,-14.09,-0.42,-0.52,-0.64,1721228606989
-12.3,25.47,8.4,-0.49,0.51,0.29,1721228606999
-0.63,-19.72,-27.84,-0.12,-0.13,0.48,1721228607009
2.96,-32.42,-16.05,-2.08,1.15,1.06,1721228607019
0.34,2.97,78.45,-0.82,-0.44,-1.02,1721228607029
-1.46,61.1,63.93,2.02,-2.2,0.16,1721228607039
-6.43,-2.09,-78.45,4.37,-1.5,0.81,1721228607049
14.27,-13.35,-78.45,-0.19,-0.65,0.33,1721228607059
30.83,-38.0,-14.08,-1.46,2.28,0.12,1721228607069
-20.63,6.86,-7.03,-0.48,0.43,-3.35,1721228607079
40.83,78.45,48.34,2.16,-0.14,-1.01,1721228607089
-40.72,-63.81,-76.66,3.72,-4.17,0.54,1721228607099
-3.67,-27.87,-68.5,-0.68,2.28,0.77,1721228607109
2.89,-15.0,68.18,-0.31,3.23,0.74,1721228607119
11.39,32.18,34.92,1.61,-0.44,0.88,1721228607129
-0.0,17.18,6.18,0.77,-0.41,0.06,1721228607139
3.74,15.94,5.24,0.07,0.07,0.01,1721228607149
-3.74,-41.45,-5.35,-0.5,-0.07,0.01,1721228607159
1.66,-15.49,27.28,-0.76,0.67,-0.59,1721228607169
-9.18,40.4,19.57,0.77,0.11,0.39,1721228607179
-4.97,-14.97,4.81,0.77,-0.09,0.52,1721228607189
-0.16,26.13,33.26,0.54,0.35,0.56,1721228607199
-3.2,55.76,0.77,1.08,-1.35,0.83,1721228607209
-14.17,-73.06,-9.25,-0.28,-4.37,0.17,1721228607219
11.85,-78.45,41.3,-2.62,4.37,-1.51,1721228607229
15.4,31.09,78.45,2.59,-3.52,-0.14,1721228607239
7.99,19.23,-65.52,3.47,0.57,-0.19,1721228607249
6.68,-18.82,-75.31,2.09,-1.48,0.59,1721228607259
-18.56,-30.83,16.2,-1.21,-4.37,1.21,1721228607269
40.82,78.45,47.33,-1.5,0.8,-0.45,1721228607279
9.22,7.19,78.45,-1.05,2.41,0.53,1721228607289
6.2,-49.14,-78.45,1.31,-0.88,0.0,1721228607299
-3.54,-7.32,-78.14,-1.95,0.31,-0.59,1721228607309
3.63,-10.69,51.15,-1.33,0.31,0.18,1721228607319
3.19,25.12,24.19,2.63,-0.37,0.34,1721228607329
8.91,-33.55,-53.58,0.85,-0.11,0.24,1721228607339
9.01,-38.63,29.8,-1.81,0.48,0.14,1721228607349
-0.97,15.56,78.45,-0.32,-0.85,0.62,1721228607359
22.57,21.09,2.91,0.35,1.28,0.23,1721228607369
12.98,-17.94,-43.97,0.87,0.49,-0.68,1721228607379
-2.91,-34.96,-20.19,-1.06,-1.18,-0.98,1721228607389
-10.84,19.79,53.61,-1.26,-0.28,-0.42,1721228607399
-13.11,46.48,55.92,1.35,0.52,0.01,1721228607409
4.21,-18.04,-59.57,1.22,-0.79,1.29,1721228607419
20.17,12.94,-35.75,-1.59,0.44,1.61,1721228607429
5.77,-19.11,23.39,0.37,0.8,-0.54,1721228607439
-11.54,45.74,78.45,-1.21,1.22,-1.09,1721228607449
6.85,40.33,-33.54,0.92,-1.04,-0.86,1721228607459
-18.64,-74.45,-78.45,-2.06,0.46,-0.54,1721228607469
-20.89,-67.19,23.19,-4.37,-0.45,-1.68,1721228607479
71.74,78.45,78.45,0.68,-0.31,-0.64,1721228607489
-1.02,-40.41,-43.09,4.37,-0.06,0.81,1721228607499
40.43,29.67,-78.45,2.31,-3.11,0.25,1721228607509
-14.89,-18.77,-53.29,-1.78,1.26,-0.45,1721228607519
3.4,78.45,5.41,0.12,0.74,-0.45,1721228607529
11.18,-78.45,14.44,4.37,-2.73,-0.74,1721228607539
5.58,60.75,-47.3,-0.97,-0.53,-0.31,1721228607549
4.27,72.35,47.54,1.54,-0.98,-0.49,1721228607559
2.94,4.84,3.16,0.77,0.73,-0.1,1721228607569
0.69,-8.4,1.42,-1.39,0.41,0.64,1721228607579
2.23,-48.73,-6.91,-0.08,0.14,-0.3,1721228607589
-18.31,56.97,34.78,0.06,-0.14,-0.28,1721228607599
-3.38,4.64,-0.56,0.99,-0.16,0.1,1721228607609
9.16,-27.22,-34.57,0.34,0.52,0.25,1721228607619
11.97,-4.7,5.82,-1.16,1.61,-0.18,1721228607629
-7.49,49.8,57.95,1.31,-1.09,-0.65,1721228607639
-13.34,-50.65,15.61,-0.2,0.71,-1.33,1721228607649
-1.24,13.36,12.72,0.3,-0.14,-0.45,1721228607659
-6.52,25.97,-20.03,0.49,-0.11,1.06,1721228607669
11.84,-43.43,-15.73,-0.67,1.3,0.45,1721228607679
3.62,11.45,49.19,0.58,-0.09,-1.05,1721228607689
18.16,71.6,-19.89,-0.1,-1.33,-0.34,1721228607699
-7.65,-38.71,-15.67,-1.49,1.48,-0.18,1721228607709
-9.68,42.54,78.34,0.63,-0.16,-0.2,1721228607719
-21.16,23.54,22.11,0.65,0.82,0.69,1721228607729
15.31,-14.31,-56.34,-0.69,-0.26,0.3,1721228607739
-4.53,-36.59,75.02,-3.46,3.22,-1.45,1721228607749
-12.09,-11.51,59.95,0.71,-2.75,-1.13,1721228607759
-18.39,-16.31,-14.48,-0.35,0.58,-0.54,1721228607769
1.56,24.47,-6.22,-0.77,0.83,1.24,1721228607779
0.39,13.72,18.66,0.15,0.91,0.6,1721228607789
8.26,16.35,8.67,0.6,-0.3,0.02,1721228607799
6.04,20.35,-11.27,0.25,0.15,-0.24,1721228607809
1.53,-72.85,-32.76,-0.55,-0.54,-0.37,1721228607819
-11.79,-33.71,60.81,-0.76,1.67,-1.47,1721228607829
-1.05,78.45,54.46,1.85,-1.0,-0.67,1721228607839
-9.0,-28.4,-78.45,2.53,-0.47,-0.47,1721228607849
-9.07,-42.28,-43.25,-2.68,0.57,-0.35,1721228607859
4.98,40.79,51.68,0.05,0.51,1.67,1721228607869
0.68,-10.93,22.76,-0.57,1.32,1.0,1721228607879
10.81,-5.85,-30.99,0.77,-1.2,-1.22,1721228607889
8.24,44.4,14.65,0.13,1.81,-1.73,1721228607899
-1.93,-42.01,13.01,-0.28,-2.01,-0.66,1721228607909
-6.18,16.22,35.58,-1.33,0.12,-0.5,1721228607919
-12.57,58.43,22.34,1.06,-0.23,1.1,1721228607929
-6.96,-56.55,-11.07,0.43,0.41,0.92,1721228607939
8.63,1.57,47.64,-1.25,1.29,0.57,1721228607949
63.27,78.45,-32.36,0.83,-0.78,-0.39,1721228607959
18.49,-78.45,-12.33,1.13,-0.57,-1.88,1721228607969
9.56,-56.13,19.81,-0.42,0.41,-1.82,1721228607979
19.66,78.45,9.14,0.51,-0.83,-1.5,1721228607989
-16.32,-10.16,0.08,0.27,0.17,0.06,1721228607999
-17.0,-28.0,20.21,-0.74,0.0,0.86,1721228608009
-0.57,13.84,2.4,1.29,0.17,1.55,1721228608019
9.15,-36.92,-36.29,0.84,-0.81,1.17,1721228608029
27.65,-58.4,71.01,-2.19,2.76,-1.85,1721228608039
-17.9,73.56,78.45,0.02,-1.16,-0.47,1721228608049
-11.24,-0.5,-16.28,2.74,-0.15,-0.38,1721228608059
0.34,-11.34,-40.43,-0.46,0.95,0.02,1721228608069
-22.31,-12.79,57.39,-1.04,1.06,1.52,1721228608079
0.68,-14.75,40.01,0.76,0.27,1.21,1721228608089
20.77,18.64,13.24,1.02,0.28,0.67,1721228608099
3.91,26.65,-24.44,0.94,-1.14,-0.14,1721228608109
-0.42,-51.81,-41.12,-1.26,0.15,-1.41,1721228608119
-7.55,-16.26,43.78,-0.77,1.44,-0.47,1721228608129
-16.12,1.69,18.46,1.1,-1.0,-0.09,1721228608139
-8.44,-9.3,60.76,0.22,0.53,0.71,1721228608149
-2.34,78.45,25.25,1.69,-0.22,2.0,1721228608159
19.81,-47.3,-78.45,0.26,0.12,0.93,1721228608169
4.02,-78.45,-58.84,-3.58,-0.19,-0.68,1721228608179
0.51,49.05,78.45,-0.6,-0.35,-3.56,1721228608189
-15.82,61.63,37.25,3.52,-1.99,-1.52,1721228608199
-27.51,-46.07,-62.35,3.0,0.3,0.91,1721228608209
3.39,58.45,-63.27,-4.37,1.33,1.33,1721228608219
-78.45,78.45,19.89,0.89,0.26,2.02,1721228608229
20.3,-78.45,-48.6,0.51,0.64,-0.39,1721228608239
21.62,-71.9,-12.0,1.98,-2.07,-0.1,1721228608249
-25.43,-4.33,78.45,0.67,1.01,-0.71,1721228608259
-20.18,77.48,36.02,1.51,0.26,0.4,1721228608269
10.66,-78.45,-78.45,2.78,-1.8,1.25,1721228608279
26.32,11.49,-0.7,-4.37,3.12,-0.53,1721228608289
0.08,78.45,78.45,0.06,-1.94,0.87,1721228608299
-5.87,-78.45,-45.88,3.3,-0.27,0.19,1721228608309
18.17,-25.17,-78.45,-3.32,2.29,-0.93,1721228608319
15.46,-72.58,78.45,-2.85,4.37,0.31,1721228608329
-12.99,75.39,12.26,0.07,2.94,1.05,1721228608339
9.51,16.13,-28.23,1.08,-1.95,0.92,1721228608349
-5.02,-22.57,-16.82,-3.04,2.52,0.96,1721228608359
2.88,-25.76,35.95,1.53,-1.15,-0.13,1721228608369
1.01,22.49,-20.12,2.73,-0.68,0.51,1721228608379
5.06,-10.99,-25.11,-0.12,0.26,0.14,1721228608389
0.74,45.8,49.0,0.69,-0.67,0.03,1721228608399
2.87,-7.39,-8.22,0.62,-0.83,0.2,1721228608409
-0.54,-15.54,-29.93,-0.8,-0.47,0.66,1721228608419
-28.66,47.53,78.45,0.07,-0.38,0.2,1721228608429
-15.7,32.69,70.54,1.19,0.54,1.46,1721228608439
3.42,-34.84,-64.82,3.1,-0.57,1.19,1721228608449
6.96,-12.69,9.05,-4.37,4.03,-0.43,1721228608459
-43.71,13.79,78.45,0.1,-2.27,0.94,1721228608469
14.99,-52.62,-76.78,2.65,1.36,1.12,1721228608479
14.6,-10.02,-54.65,-3.6,0.25,0.73,1721228608489
-42.39,78.45,78.45,1.32,-2.2,-0.52,1721228608499
17.12,-30.39,-31.89,2.54,-0.12,0.08,1721228608509
45.49,-9.9,-68.68,-2.28,0.78,-1.07,1721228608519
-10.4,-16.72,-36.37,-4.37,4.37,-2.27,1721228608529
-78.45,78.45,78.45,3.89,-4.37,-2.99,1721228608539
-28.29,11.44,15.41,4.37,0.56,0.17,1721228608549
-12.12,-52.03,-78.45,4.37,-0.83,3.25,1721228608559
26.66,-43.49,-74.03,-0.09,0.83,1.3,1721228608569
17.63,-45.45,76.93,-1.51,4.37,-0.41,1721228608579
-66.7,12.51,28.56,-0.0,-1.21,-0.01,1721228608589
10.57,-70.5,-46.79,1.45,1.55,-0.83,1721228608599
12.78,-0.23,-0.5,-0.68,0.11,-0.55,1721228608609
-14.99,26.0,3.18,-0.61,-1.4,0.22,1721228608619
-16.8,-25.89,-4.16,-0.88,1.29,-0.57,1721228608629
-3.04,-3.25,16.12,0.73,0.1,0.26,1721228608639
4.13,-5.05,-45.95,1.07,-0.35,0.74,1721228608649
5.92,-38.41,-3.74,-2.76,1.9,0.74,1721228608659
4.75,78.45,78.45,0.2,-2.27,-0.26,1721228608669
-1.59,-78.45,-56.84,1.38,-1.52,-0.17,1721228608684
7.67,-68.26,-42.12,-1.91,1.18,-0.2,1721228608688
-14.69,58.09,78.45,-1.18,-0.49,-0.43,1721228608698
-35.14,43.25,37.43,2.42,-0.88,0.0,1721228608708
-7.36,-54.25,-50.36,4.37,-0.23,0.03,1721228608718
7.82,-76.58,-70.63,-1.1,-0.99,0.66,1721228608728
15.39,-26.62,31.04,-2.03,2.35,-0.1,1721228608738
-24.22,36.04,37.57,0.24,-1.83,0.1,1721228608748
4.15,-9.42,4.11,0.04,0.9,-0.93,1721228608758
-3.0,-12.38,30.94,-0.34,0.49,-0.19,1721228608768
-2.1,6.51,1.82,0.34,-0.73,-0.05,1721228608778
3.56,57.49,-14.44,0.97,0.44,0.2,1721228608788
-1.42,-50.55,-21.85,-2.71,-0.41,-0.22,1721228608798
12.96,-50.81,47.5,0.47,-0.29,-0.7,1721228608808
17.78,78.45,50.48,0.3,0.67,0.87,1721228608818
13.3,-67.68,-32.43,1.38,0.03,-0.56,1721228608828
-1.29,-19.51,11.04,-1.33,0.28,0.01,1721228608838
4.28,29.18,36.52,0.63,1.1,-0.21,1721228608848
5.78,-16.81,-5.67,0.05,0.51,-1.19,1721228608858
-7.8,27.61,-1.59,0.27,0.13,-1.21,1721228608868
-17.68,6.79,-19.38,1.27,-0.44,-0.19,1721228608878
-12.29,3.13,-6.72,-1.32,-0.49,0.06,1721228608888
-6.18,-55.45,45.55,-1.65,0.41,1.0,1721228608898
13.43,33.16,56.58,1.44,1.05,0.91,1721228608908
1.92,3.88,-17.5,-0.71,-1.33,0.08,1721228608918
-0.81,-13.11,-47.37,-0.6,0.77,-1.62,1721228608928
-2.06,-55.31,56.55,-0.93,1.56,-0.93,1721228608938
-4.81,3.24,56.28,1.34,-0.37,-0.29,1721228608948
2.7,71.8,-8.07,1.64,-0.06,0.39,1721228608958
-0.69,12.77,-6.66,-0.94,-0.21,0.59,1721228608968
-3.4,-78.45,37.49,-2.75,-0.01,-0.09,1721228608978
3.57,6.63,53.15,1.57,0.79,-0.44,1721228608988
0.29,15.9,24.5,0.65,-0.7,0.33,1721228608998
-7.78,15.04,-68.04,1.22,-0.69,0.05,1721228609008
4.94,-24.61,-20.34,0.73,0.94,-0.5,1721228609018
-2.29,26.13,56.27,0.12,-0.79,0.03,1721228609028
-2.46,-6.34,26.8,-0.55,0.83,0.55,1721228609038
2.77,-20.06,-22.36,1.09,-0.24,0.52,1721228609048
1.15,14.47,-15.84,-1.55,0.04,-0.51,1721228609058
-0.85,-29.6,29.36,-1.1,-0.09,-0.61,1721228609068
-0.19,-27.49,36.01,0.44,0.25,-0.35,1721228609078
-10.1,35.11,24.6,0.69,-0.42,-0.2,1721228609088
-7.68,-9.0,-11.06,-1.44,-0.65,0.48,1721228609098
-6.31,24.3,61.23,-0.27,0.1,0.46,1721228609108
16.91,43.2,18.67,0.92,-0.17,0.62,1721228609118
11.95,-78.44,-52.62,0.73,-0.86,-0.42,1721228609128
27.28,58.86,-76.98,-0.63,-1.96,-1.09,1721228609138
16.35,-14.11,34.91,-0.49,4.21,-0.99,1721228609148
-10.04,-58.12,71.85,-0.56,-0.05,-0.27,1721228609158
-13.51,65.79,78.45,0.75,-1.89,1.0,1721228609168
11.93,49.59,-2.66,1.51,1.18,2.11,1721228609178
12.83,-56.33,-78.45,-0.39,0.63,1.82,1721228609188
24.62,-31.7,-54.54,-0.11,0.77,-1.25,1721228609198
-3.9,-29.36,-27.53,-2.1,1.98,-1.95,1721228609208
-39.61,-19.74,63.75,-0.04,-4.35,-1.01,1721228609218
-78.45,67.09,69.16,-1.6,1.81,-0.65,1721228609228
-6.89,56.66,-17.5,1.24,0.47,0.79,1721228609238
-1.94,-4.84,-61.87,0.35,-0.02,1.43,1721228609248
15.47,-44.08,-39.05,-2.22,1.58,1.1,1721228609258
9.82,6.95,12.64,1.23,-0.17,0.3,1721228609268
2.29,-0.15,4.8,1.37,-0.59,-1.03,1721228609278
-9.17,-10.74,17.69,-1.14,0.44,-0.18,1721228609288
-15.02,6.9,76.59,-0.42,-0.32,-1.07,1721228609298
-4.92,27.97,16.7,1.63,-0.35,-0.06,1721228609308
-4.12,-25.59,-37.83,0.56,0.97,0.74,1721228609318
11.16,-9.35,-6.7,0.46,0.92,0.15,1721228609328
6.17,-9.02,-40.6,1.18,-0.56,-1.06,1721228609338
-3.76,-15.96,-29.76,-0.88,1.19,-1.67,1721228609348
-14.67,-6.63,78.45,-1.25,-1.58,-1.2,1721228609358
-4.02,78.45,78.45,-0.02,0.77,1.27,1721228609368
-16.75,-59.32,-73.6,3.44,1.94,0.98,1721228609378
32.6,-16.89,-78.45,3.55,-3.45,1.18,1721228609388
12.81,-13.55,-37.36,-0.75,1.2,-0.18,1721228609398
8.66,20.68,26.9,-0.47,4.37,-2.47,1721228609408
0.31,-11.43,52.27,0.89,-2.46,0.09,1721228609418
-25.62,-34.92,-20.3,-2.88,2.16,-0.86,1721228609428
-17.71,67.37,78.45,0.12,0.09,-0.57,1721228609438
-2.33,17.45,-21.02,1.4,0.05,1.68,1721228609448
32.42,-1.21,-56.8,0.01,0.27,1.89,1721228609458
45.34,-58.18,-12.9,-4.37,4.37,-2.2,1721228609468
-15.3,78.45,78.45,-0.71,-0.87,-2.96,1721228609478
-19.54,-33.95,29.46,0.23,1.96,-1.59,1721228609488
-41.96,-16.42,-71.0,2.03,-0.93,-0.43,1721228609498
-29.34,4.93,-14.69,-1.96,-0.49,0.08,1721228609508
2.95,5.17,36.98,-2.66,2.81,0.89,1721228609518
4.02,-13.73,20.99,3.35,0.29,1.04,1721228609528
12.93,23.13,-59.47,1.66,-0.02,0.93,1721228609538
26.14,-4.38,-31.82,-1.69,0.32,-0.8,1721228609548
-6.92,-2.69,34.64,-0.74,0.42,-1.97,1721228609558
-13.93,-51.69,16.76,2.42,-1.45,-1.53,1721228609568
-13.96,3.07,20.6,-1.08,-0.18,0.31,1721228609578
3.96,49.31,4.71,0.99,0.77,2.1,1721228609588
7.46,-46.59,-43.21,1.25,-0.39,1.9,1721228609598
30.38,26.17,-6.33,-1.36,1.41,0.1,1721228609608
20.65,77.99,39.65,-1.04,-0.7,-1.56,1721228609618
4.93,-47.58,28.19,-2.43,-0.28,-2.51,1721228609628
-5.84,-1.85,62.6,-1.43,-0.29,-1.86,1721228609638
-0.91,61.39,12.3,0.41,-0.36,-1.13,1721228609648
-6.18,-5.12,-39.02,2.3,-0.34,0.82,1721228609658
-12.1,-22.23,-34.74,-0.68,-0.26,1.63,1721228609668
10.01,-17.4,77.84,-2.76,3.36,0.0,1721228609678
-8.4,-9.72,46.79,0.44,-1.56,-0.15,1721228609688
1.53,-5.39,4.46,0.41,-1.06,-0.28,1721228609698
4.13,42.62,11.59,0.58,1.24,0.19,1721228609708
8.36,3.11,9.89,0.8,-0.7,-0.18,1721228609718
-4.73,-64.14,0.19,-0.88,0.04,-1.13,1721228609728
-17.91,36.67,12.77,-0.33,1.07,-0.8,1721228609738
-5.56,-0.89,-0.25,0.34,-0.5,0.58,1721228609748
2.83,-2.78,10.28,1.19,0.91,0.08,1721228609758
21.26,33.49,-5.99,1.73,-0.26,0.2,1721228609768
4.88,48.9,-19.35,1.71,-0.17,0.11,1721228609778
-0.03,-8.75,-37.16,-1.09,-0.6,-0.6,1721228609788
-15.12,-78.45,43.61,-3.48,-0.6,-0.68,1721228609798
-7.16,54.82,78.45,3.46,-1.93,1.05,1721228609808
15.22,-40.7,-20.9,2.75,0.4,0.73,1721228609818
0.03,-15.95,-78.45,2.56,-2.29,0.37,1721228609828
11.77,-25.18,3.45,-2.8,-1.88,-0.17,1721228609838
-12.62,78.45,36.89,1.39,-1.64,-0.57,1721228609848
-3.83,-39.79,-10.38,-0.31,0.83,-0.72,1721228609858
6.77,-28.7,-16.76,-0.78,-1.58,-1.06,1721228609868
-11.28,36.34,37.63,0.64,-1.12,-0.28,1721228609878
-11.25,-10.18,-58.0,1.83,-0.37,0.7,1721228609888
9.15,-6.78,-40.68,0.13,0.25,1.81,1721228609898
12.77,-28.02,78.45,-1.79,-0.76,0.22,1721228609908
-14.13,78.45,78.45,0.28,1.0,1.4,1721228609918
14.66,-43.48,-42.49,3.55,-0.44,-0.84,1721228609928
-22.89,-26.91,-78.45,3.09,-1.82,-1.25,1721228609938
-28.45,-2.83,-40.59,0.26,-3.81,-0.78,1721228609948
24.03,53.44,10.52,-2.41,4.37,-4.04,1721228609958
18.16,-78.45,48.56,-2.5,0.44,0.05,1721228609968
-5.62,38.0,78.45,-0.01,1.29,0.26,1721228609978
-13.61,18.89,78.45,-1.16,0.03,1.3,1721228609988
-13.45,59.26,-71.74,4.37,-1.3,1.02,1721228609998
13.5,-10.97,-73.35,0.61,-2.68,0.18,1721228610008
44.58,-27.03,18.62,-0.67,4.37,-0.95,1721228610018
12.85,-77.67,78.45,-0.07,-2.08,-2.45,1721228610028
-78.45,78.45,78.45,0.32,-0.37,-0.56,1721228610038
-49.52,-78.45,-78.45,4.37,3.05,-0.59,1721228610048
-21.51,78.45,-66.19,2.44,-4.37,1.42,1721228610058
60.13,54.32,-56.4,-4.37,4.37,2.48,1721228610068
-5.19,-78.45,78.45,-0.2,-1.46,1.18,1721228610078
73.77,78.45,78.45,-0.09,4.37,0.87,1721228610088
8.95,-78.45,-62.62,4.37,-4.37,2.91,1721228610098
8.41,-13.27,-73.14,-0.52,4.28,0.58,1721228610108
-8.78,14.41,25.74,-0.1,1.36,-0.8,1721228610118
30.12,38.34,59.46,-0.24,-0.78,-2.14,1721228610128
-22.24,23.23,-50.52,0.06,-0.22,-1.79,1721228610138
-14.4,-8.41,-6.81,-1.69,0.45,-0.15,1721228610148
-3.81,-65.74,68.77,-1.42,-1.0,0.39,1721228610158
-23.65,30.59,65.74,1.92,-1.75,2.34,1721228610168
6.57,14.81,-22.99,0.98,0.37,1.12,1721228610178
12.83,-20.1,-13.56,-1.41,0.13,0.57,1721228610188
12.3,42.13,27.29,0.47,0.69,-0.89,1721228610198
13.84,17.51,26.84,1.27,-0.15,-0.53,1721228610208
-3.2,-45.65,-28.45,0.07,0.08,-0.44,1721228610218
-11.61,0.13,14.11,0.39,0.47,-0.25,1721228610228
-3.59,7.5,28.57,0.57,0.11,-0.22,1721228610238
-3.0,31.55,26.75,0.95,0.31,0.77,1721228610248
11.32,-0.53,7.32,0.01,0.62,0.58,1721228610258
5.21,-34.25,30.02,-0.68,-0.06,-1.36,1721228610268
-9.98,19.39,-3.35,1.18,-1.07,-1.13,1721228610278
-11.23,-37.48,-37.42,-0.14,1.0,0.53,1721228610288
-9.5,7.68,78.17,-1.03,2.66,1.09,1721228610298
-10.67,30.62,31.17,1.57,-0.86,1.69,1721228610308
10.37,-65.6,-47.76,-0.27,0.29,0.4,1721228610318
12.46,10.31,41.54,-0.88,0.49,-1.2,1721228610328
-9.48,55.27,54.24,1.47,-0.64,-0.9,1721228610338
3.33,-11.01,-48.28,0.3,-0.27,-0.79,1721228610348
5.92,-5.99,13.4,-1.17,0.88,-0.45,1721228610358
-3.98,48.97,55.34,-0.26,0.8,0.64,1721228610368
10.28,11.36,-3.71,0.16,-0.92,0.06,1721228610378
12.17,5.01,-4.14,-0.39,0.32,0.44,1721228610388
9.38,-17.02,-9.39,0.52,-0.31,0.55,1721228610398
-7.86,-67.19,38.04,-0.45,0.05,-0.73,1721228610408
-0.79,43.42,53.73,1.71,-1.34,-0.71,1721228610418
-3.71,-4.85,-51.14,1.38,-0.09,0.08,1721228610428
15.26,7.91,-16.68,-2.45,0.37,0.44,1721228610438
29.68,60.05,78.45,-0.13,0.41,-0.64,1721228610448
12.11,-69.59,-0.02,0.68,0.01,-0.26,1721228610458
-20.79,78.45,5.89,-2.14,-0.85,-0.08,1721228610468
17.26,74.68,22.63,0.14,1.15,0.89,1721228610478
6.71,-26.08,-50.59,1.37,-0.33,-0.54,1721228610488
16.59,9.2,-12.01,-1.54,-1.87,-2.32,1721228610498
-33.34,30.1,59.17,-1.13,-0.15,-0.46,1721228610508
-0.13,44.24,69.13,-0.06,1.2,0.91,1721228610518
3.67,-15.92,0.79,-1.56,0.49,1.17,1721228610528
21.84,-14.1,-18.03,-0.84,-0.15,0.16,1721228610538
22.49,18.75,-26.65,0.42,-0.44,-0.88,1721228610548
6.66,-33.16,-22.44,-0.39,-0.37,-0.48,1721228610558
-4.75,3.49,78.45,-0.47,-0.07,-2.74,1721228610568
-13.21,28.49,54.5,0.83,-1.13,-1.91,1721228610578
-26.79,-2.01,-22.46,-0.09,-0.11,0.63,1721228610588
-12.33,-9.32,-5.45,-0.15,1.35,1.88,1721228610598
4.55,10.5,13.25,0.85,0.92,2.25,1721228610608
21.08,11.79,28.82,-0.54,0.67,0.68,1721228610618
10.25,-11.77,24.1,-1.25,0.05,-0.23,1721228610628
