AccX,AccY,AccZ,GyrX,GyrY,GyrZ,Time
-15.23,22.78,-11.99,0.33,0.31,0.24,1721228106172
-11.2,29.32,-7.19,0.32,-0.4,1.07,1721228106177
0.69,16.77,-6.01,-0.09,0.4,1.26,1721228106187
8.69,-12.77,5.18,-1.37,-0.01,0.8,1721228106197
8.72,-35.56,44.0,-0.88,0.45,-0.22,1721228106207
2.84,17.81,7.8,1.29,-0.58,-1.0,1721228106217
-4.19,0.7,-48.42,0.32,-0.85,-0.54,1721228106227
-10.87,-24.58,-5.65,-0.94,0.92,0.28,1721228106237
-8.69,-14.58,78.45,-1.14,-0.05,0.49,1721228106247
-4.08,44.81,53.28,1.26,0.19,0.8,1721228106257
4.9,13.46,-21.01,1.09,-0.11,0.76,1721228106267
17.03,34.08,-38.3,-1.59,0.61,-0.6,1721228106277
-4.96,7.3,11.37,1.13,-0.84,-0.73,1721228106287
-4.67,-53.21,-22.21,1.53,-0.68,-0.09,1721228106297
-11.28,-24.51,-2.45,-0.91,1.21,0.14,1721228106307
-4.23,39.99,75.73,-0.41,-0.44,1.22,1721228106317
8.89,38.89,30.33,1.53,0.19,1.11,1721228106327
10.29,-11.43,-40.61,0.87,-1.11,0.28,1721228106337
13.85,-14.34,-14.8,-0.76,1.81,-0.59,1721228106347
4.42,-19.22,20.9,-0.6,-0.7,-1.17,1721228106357
-5.38,-12.06,58.67,0.15,0.18,-2.02,1721228106367
-20.68,29.91,26.86,1.4,-1.42,-0.8,1721228106377
-13.18,6.38,-10.37,-0.47,0.01,0.81,1721228106387
0.29,29.61,28.37,-0.04,0.4,2.43,1721228106397
13.77,-9.04,-31.66,0.74,-0.27,1.27,1721228106407
20.21,-26.97,-32.8,-0.37,0.57,-0.38,1721228106417
9.7,-15.55,29.33,-0.73,0.18,-1.89,1721228106427
-12.78,-20.82,64.42,-0.28,-0.68,-2.24,1721228106437
-23.35,21.66,34.49,1.3,-0.61,-1.41,1721228106447
-14.83,3.77,-20.55,0.26,-0.28,0.77,1721228106457
-9.21,34.69,11.44,0.24,0.87,2.27,1721228106467
10.06,-4.84,-21.85,0.62,-0.06,1.05,1721228106477
15.11,-48.68,-23.03,-0.28,0.23,-0.66,1721228106487
1.33,12.47,24.71,-0.42,0.1,-1.26,1721228106497
-1.13,3.28,36.14,-0.12,-0.05,-0.75,1721228106507
-12.56,22.19,34.74,0.86,-0.37,-0.63,1721228106517
-7.29,21.88,-6.07,0.47,-0.29,0.01,1721228106527
1.12,-47.4,-3.56,-1.52,-0.04,0.83,1721228106537
0.65,17.83,38.09,0.06,0.51,0.78,1721228106547
8.44,6.17,-15.16,0.8,-0.78,0.12,1721228106557
7.93,-14.3,14.28,-0.93,1.05,-0.56,1721228106567
-2.84,-0.74,26.59,0.62,-0.68,-0.72,1721228106577
0.46,0.17,-26.48,0.21,-0.03,-0.42,1721228106587
-9.3,-11.97,21.14,-0.92,0.23,-0.16,1721228106597
-7.16,22.28,45.47,0.92,-0.45,0.85,1721228106607
7.32,17.52,-17.93,0.42,0.06,1.04,1721228106617
11.27,-20.93,-24.45,-0.92,0.45,0.41,1721228106627
5.46,-33.7,19.39,-2.19,0.19,-1.5,1721228106637
-11.2,-18.56,78.45,-0.07,-0.66,-1.42,1721228106647
-2.97,51.05,13.7,3.11,-0.65,0.46,1721228106657
13.04,-20.64,-70.2,0.44,-0.33,0.34,1721228106667
-1.02,-14.86,53.35,-1.49,1.1,-0.52,1721228106677
-6.7,15.71,26.17,0.88,-0.54,0.53,1721228106687
9.9,15.28,-39.35,0.33,0.59,0.19,1721228106697
-4.99,-17.16,-12.8,-0.9,0.11,-0.67,1721228106707
-9.92,-10.28,63.67,-0.25,0.12,-0.74,1721228106717
-4.85,15.45,20.31,1.32,-0.5,0.77,1721228106727
14.19,4.34,-0.62,-0.89,0.62,0.7,1721228106737
6.23,25.0,13.47,0.09,0.28,-0.51,1721228106747
8.74,-15.28,4.02,0.03,-0.16,-1.25,1721228106757
-9.47,-30.82,7.02,-0.27,-0.18,-1.04,1721228106767
-8.38,1.22,22.12,0.16,0.29,-0.5,1721228106777
-10.88,3.21,0.2,-0.16,-0.22,0.19,1721228106787
-4.57,6.29,21.86,0.07,0.3,0.87,1721228106797
7.62,-0.84,14.0,0.14,-0.32,1.17,1721228106807
16.63,-2.08,5.12,-0.07,0.5,0.13,1721228106817
12.85,3.29,-2.81,0.25,-0.32,-1.09,1721228106827
0.88,-5.59,-13.62,0.47,-0.32,-2.0,1721228106837
-15.04,48.37,7.58,0.91,0.12,-1.42,1721228106847
-13.68,-10.01,19.81,-2.6,0.22,0.37,1721228106857
-12.71,-48.45,78.45,-1.28,1.0,-0.12,1721228106867
3.33,6.34,-3.18,2.02,-1.23,1.64,1721228106877
28.47,15.38,-74.12,-0.39,0.42,1.59,1721228106887
19.16,-38.28,-11.68,-0.63,0.19,-1.07,1721228106897
-2.18,-5.28,55.6,0.1,-0.64,-2.83,1721228106907
-19.24,41.07,28.84,1.46,-0.16,-2.0,1721228106917
-18.89,33.49,-8.46,-0.23,0.45,0.03,1721228106927
-14.62,-8.6,4.98,-1.06,0.35,1.82,1721228106937
10.97,-29.21,26.21,-0.96,0.75,1.22,1721228106947
14.92,-21.08,23.52,0.42,0.32,0.76,1721228106957
14.21,20.86,-17.81,0.21,0.55,-0.78,1721228106967
-0.75,-13.57,-1.96,-0.25,-0.92,-2.49,1721228106977
-11.13,32.22,38.55,0.06,0.31,-2.51,1721228106987
-21.26,35.04,24.55,0.8,-0.45,-0.5,1721228106997
-16.14,-38.5,-2.86,-0.6,0.72,1.6,1721228107007
8.66,-21.47,5.94,0.01,0.32,2.21,1721228107017
7.73,9.2,2.2,1.1,1.02,1.58,1721228107027
20.66,-4.21,-6.34,-0.33,-0.22,-0.51,1721228107037
6.97,43.62,35.84,0.65,1.01,-2.04,1721228107047
1.39,16.07,1.37,1.0,-1.98,-1.49,1721228107057
-7.1,-26.17,-20.26,-0.96,0.98,-0.96,1721228107067
-14.48,0.51,2.01,-0.05,-0.25,0.31,1721228107077
-6.35,-36.36,-2.18,-0.93,0.54,0.86,1721228107087
-1.43,-21.98,78.45,-1.24,0.39,0.48,1721228107097
3.38,66.51,78.45,2.05,0.98,0.85,1721228107107
12.51,5.12,-59.56,1.35,-0.91,-0.83,1721228107117
7.79,-3.99,3.23,-1.19,1.69,-0.92,1721228107127
-0.74,-25.21,-20.17,-0.16,-2.01,-0.91,1721228107137
-4.05,-25.78,-17.34,-0.18,1.34,-0.75,1721228107147
-14.57,24.48,31.49,0.57,-0.15,0.25,1721228107157
-1.43,-18.05,8.71,-0.61,0.09,0.12,1721228107167
-4.13,12.95,44.4,0.04,0.49,0.02,1721228107177
3.92,-2.44,6.51,0.33,-0.54,-0.2,1721228107187
-7.77,20.58,-21.23,0.08,0.39,-0.08,1721228107197
4.49,-17.38,-16.93,0.1,-0.61,-0.0,1721228107207
-2.85,1.07,35.63,-0.57,1.32,-0.41,1721228107217
-2.52,39.1,31.1,1.18,-1.17,-0.12,1721228107227
-11.43,-38.14,-23.19,-1.36,0.25,-0.9,1721228107237
-9.54,-2.52,46.49,-1.77,0.27,-0.23,1721228107247
0.76,30.44,27.99,1.26,-0.14,1.39,1721228107257
2.62,5.93,-36.33,0.8,-0.33,1.02,1721228107267
12.65,-4.5,-16.46,-0.13,0.52,-0.05,1721228107277
3.03,8.47,-1.08,0.45,-0.39,-0.51,1721228107287
1.0,-29.99,31.86,-1.79,0.26,-1.16,1721228107297
-23.7,11.44,65.56,0.44,-0.94,0.78,1721228107307
3.21,-8.84,-3.92,0.41,-0.36,0.42,1721228107317
-0.18,35.18,1.21,-0.51,0.93,-0.8,1721228107327
-10.79,11.63,6.07,0.48,-0.69,-1.31,1721228107337
-17.74,4.91,-12.87,0.79,0.22,0.15,1721228107347
-8.01,-27.78,-20.89,-0.19,0.03,1.26,1721228107357
7.54,-17.26,34.65,-1.2,0.91,1.11,1721228107367
3.17,38.1,69.83,0.68,-0.56,1.14,1721228107377
11.9,11.97,-31.01,1.05,-0.91,0.12,1721228107387
12.47,-45.98,-33.88,-1.51,0.48,-1.08,1721228107397
-10.57,14.68,55.96,-1.05,0.27,-1.58,1721228107407
-17.0,7.78,-2.48,2.24,-2.09,-0.44,1721228107417
-16.9,20.05,-19.67,0.21,0.25,0.74,1721228107427
1.21,46.51,24.5,-0.42,0.83,1.54,1721228107437
6.47,-14.12,15.86,-1.13,-0.31,1.14,1721228107447
9.71,-31.99,14.88,-0.46,0.43,-0.75,1721228107457
-3.11,7.64,-20.74,0.98,-1.25,-0.79,1721228107467
-2.25,-27.39,-34.58,-0.91,0.49,0.16,1721228107477
-4.54,-9.61,42.34,-0.75,0.81,0.68,1721228107487
-3.88,30.92,48.51,1.0,-1.12,0.88,1721228107497
8.27,33.12,-18.81,0.38,-0.01,1.02,1721228107507
21.68,-26.63,34.59,-2.22,1.2,-0.22,1721228107517
-8.81,23.42,46.8,1.45,-1.37,-1.2,1721228107527
6.47,-56.72,-49.9,1.2,-0.94,-1.73,1721228107537
-24.21,-21.11,-9.25,-3.16,1.38,-1.26,1721228107547
-21.63,27.65,62.5,0.53,-1.44,1.01,1721228107557
-3.0,35.05,-14.0,1.61,1.17,2.2,1721228107567
19.82,6.45,-16.58,0.0,-0.28,2.52,1721228107577
25.01,-33.66,27.39,-1.66,1.5,-0.01,1721228107587
7.0,16.93,20.59,0.09,-1.25,-1.9,1721228107597
3.1,8.61,-23.88,1.19,-1.28,-2.63,1721228107607
-17.95,-3.94,-7.3,-0.7,1.33,-1.36,1721228107617
-19.93,5.54,45.53,-0.27,-0.95,0.75,1721228107627
-7.39,-3.17,19.96,0.65,0.47,1.44,1721228107637
12.02,7.12,-12.01,0.37,-0.32,1.62,1721228107647
18.83,-7.73,-22.64,0.08,0.81,0.35,1721228107657
10.12,-36.91,10.78,-0.67,-0.17,-1.46,1721228107667
-7.63,10.14,47.73,1.05,-0.43,-2.43,1721228107677
-13.24,16.45,-10.72,1.74,-0.69,-1.73,1721228107687
-22.16,2.48,21.69,-1.73,0.42,0.34,1721228107697
-1.72,24.11,69.92,-0.69,0.07,2.18,1721228107707
10.05,4.16,-11.55,0.58,-0.27,2.0,1721228107717
23.83,-41.64,-52.6,-0.03,0.15,0.45,1721228107727
14.65,3.05,-9.7,-0.19,0.82,-1.64,1721228107737
-2.18,-17.47,-14.47,-0.26,-1.35,-2.09,1721228107747
-15.52,-34.69,68.05,-1.23,1.16,-1.66,1721228107757
-30.87,23.84,78.45,1.97,-0.94,1.15,1721228107767
2.24,29.97,-21.95,1.65,1.11,2.2,1721228107777
16.71,-25.08,-38.12,-1.87,0.71,0.61,1721228107787
-2.43,18.1,45.45,-0.05,1.04,-1.55,1721228107797
2.71,-15.94,-34.99,1.29,-1.65,-0.99,1721228107807
-2.74,-31.06,-19.51,-1.21,1.79,0.06,1721228107817
-12.32,14.45,66.91,-0.1,-0.45,0.64,1721228107827
6.87,11.67,18.05,1.13,-0.47,0.77,1721228107837
7.91,39.38,-20.44,0.04,-0.03,0.73,1721228107847
13.01,-19.13,1.14,-1.2,1.01,-0.63,1721228107857
-1.76,-32.5,51.15,-0.82,-0.05,-2.79,1721228107867
-10.77,7.04,5.74,2.14,-0.39,-1.69,1721228107877
-17.64,-11.33,-39.51,-0.66,-0.27,0.62,1721228107887
-7.62,37.14,50.75,-0.65,0.75,1.33,1721228107897
16.51,13.98,19.51,1.69,-0.13,2.44,1721228107907
27.83,-36.62,-35.93,-0.51,0.58,0.56,1721228107917
14.43,8.0,7.27,-0.7,1.15,-2.12,1721228107927
-1.95,9.62,14.84,0.44,-0.99,-2.49,1721228107937
-18.52,-0.82,20.59,0.47,0.73,-1.39,1721228107947
-19.37,-3.45,13.88,0.08,-0.29,1.14,1721228107957
-2.26,-9.49,21.33,-0.56,0.91,1.6,1721228107967
10.24,-10.75,28.3,-0.1,-0.08,1.28,1721228107977
16.2,46.31,24.16,1.23,0.74,0.32,1721228107987
12.31,19.69,-31.21,0.87,-0.62,-1.08,1721228107997
1.74,-36.08,-26.05,-0.59,0.49,-2.2,1721228108007
-12.84,-1.09,4.36,-0.39,0.04,-1.73,1721228108017
-20.19,-12.32,23.76,-0.21,0.43,0.13,1721228108027
-13.91,-0.66,46.34,0.63,0.23,1.25,1721228108037
7.08,35.48,14.19,1.95,0.35,1.62,1721228108047
14.38,-3.33,-33.44,-1.59,0.4,0.65,1721228108057
10.04,-23.7,47.69,-2.73,0.66,-1.4,1721228108067
1.69,-0.94,46.56,1.71,-0.83,-1.13,1721228108077
1.61,-3.23,-56.58,0.82,-0.31,-0.4,1721228108087
-5.35,-31.6,-16.71,-1.77,1.6,-0.85,1721228108097
-25.43,25.39,78.45,0.16,-0.39,-1.22,1721228108107
-10.07,17.06,8.27,1.34,-0.65,-0.1,1721228108117
-9.41,0.21,-25.78,-0.96,0.97,1.04,1721228108127
5.62,-21.33,4.47,-1.24,0.31,1.07,1721228108137
11.28,-15.42,33.11,-0.58,0.63,0.45,1721228108147
15.64,2.15,29.61,0.43,0.05,-0.31,1721228108157
3.84,9.21,9.15,-0.13,0.07,-1.73,1721228108167
-11.56,17.99,17.79,-0.19,-0.26,-0.63,1721228108182
-11.73,25.8,11.85,-0.18,0.37,0.02,1721228108186
-8.26,-33.68,-13.72,-1.05,0.0,0.98,1721228108196
1.07,2.14,37.67,-0.8,1.42,0.19,1721228108206
0.61,21.39,14.54,1.18,-1.08,0.01,1721228108216
0.64,10.31,-22.35,0.36,0.32,-0.46,1721228108226
-6.21,-14.23,27.99,-1.29,0.41,-0.65,1721228108236
-6.19,20.65,50.73,0.52,0.32,0.04,1721228108246
-5.65,-4.76,-26.93,0.82,-0.37,0.42,1721228108256
5.24,-3.23,-10.56,-0.02,0.59,0.62,1721228108266
3.4,-17.84,-5.98,0.19,-0.07,0.54,1721228108276
11.09,8.02,35.76,-0.03,1.03,-0.17,1721228108286
3.39,8.95,34.23,0.98,-0.8,-0.68,1721228108296
-9.48,8.05,-7.38,0.33,0.52,-1.18,1721228108306
-16.73,-30.3,10.89,-1.3,-0.17,0.29,1721228108316
-7.82,-8.35,46.12,0.1,0.55,1.92,1721228108326
14.87,37.72,4.52,1.66,-0.19,2.39,1721228108336
18.61,8.58,-36.69,0.5,-0.06,0.77,1721228108346
18.01,-31.06,-14.9,-1.36,0.66,-0.95,1721228108356
4.48,1.33,52.34,-0.71,0.77,-2.07,1721228108366
-15.9,2.72,37.3,0.92,-0.84,-2.49,1721228108376
-26.62,-6.62,14.3,-0.49,0.0,-0.47,1721228108386
-12.64,34.32,34.37,0.1,0.23,2.36,1721228108396
3.58,7.94,-10.31,0.21,0.34,1.53,1721228108406
9.54,-25.46,-25.73,-0.18,-0.27,0.53,1721228108416
11.91,-22.45,-8.11,-0.72,0.43,0.14,1721228108426
2.68,19.45,53.43,-0.22,0.31,-0.92,1721228108436
-2.04,18.43,18.0,1.33,-0.77,-0.62,1721228108446
-5.42,-10.08,-15.65,-0.79,0.27,-0.04,1721228108456
-7.62,24.14,29.31,-0.29,0.2,0.48,1721228108466
0.95,-9.3,1.38,0.61,-0.39,0.54,1721228108476
2.73,-28.5,-19.41,0.15,0.32,0.47,1721228108486
8.3,3.74,-10.62,0.52,0.32,0.43,1721228108496
5.65,-9.28,17.55,-0.76,0.45,-0.2,1721228108506
-4.93,25.45,56.14,0.32,-0.07,-0.97,1721228108516
-8.93,9.6,1.14,0.44,-0.97,-0.52,1721228108526
-8.66,-19.49,15.44,-1.74,0.61,0.7,1721228108536
-0.28,4.15,44.21,0.31,0.3,1.53,1721228108546
6.88,-0.67,-35.01,1.43,-0.78,0.49,1721228108556
9.88,-5.25,-36.02,-0.33,0.65,-0.48,1721228108566
-1.98,9.66,29.99,-0.04,-0.16,-0.18,1721228108576
7.11,-1.76,34.97,0.21,0.44,-0.28,1721228108586
-8.67,21.47,18.16,0.56,-0.1,-0.58,1721228108596
-9.06,2.82,-10.81,-0.44,-0.35,-0.13,1721228108606
-4.76,-2.84,28.8,-1.14,0.84,0.63,1721228108616
3.21,-30.4,28.69,0.23,-0.47,0.79,1721228108626
5.97,36.15,-8.54,1.67,0.23,0.26,1721228108636
5.17,0.73,-23.8,-0.74,-0.42,-0.53,1721228108646
-9.7,-10.94,43.17,-1.23,0.69,-0.91,1721228108656
-0.12,-8.54,38.29,0.23,-0.23,-0.15,1721228108666
-12.46,-5.96,-3.88,0.35,-0.7,0.22,1721228108676
-0.29,44.7,22.86,0.18,0.86,0.52,1721228108686
2.68,13.97,-11.1,1.0,-1.02,1.39,1721228108696
14.84,-45.22,-29.74,-0.46,0.55,0.6,1721228108706
7.79,9.06,0.59,0.04,0.84,-0.6,1721228108716
0.25,-27.15,21.06,-0.34,-0.63,-1.09,1721228108726
-7.73,31.85,59.01,1.01,0.32,-0.13,1721228108736
-0.65,-6.56,-4.18,0.88,-0.92,0.77,1721228108746
3.76,13.56,3.09,-0.87,1.53,0.18,1721228108756
-2.22,5.52,24.62,0.07,-0.48,-0.67,1721228108766
-13.93,-4.46,-13.77,1.15,-0.57,-0.44,1721228108776
-8.33,-5.55,-40.33,0.43,-0.13,0.92,1721228108786
0.8,-8.83,-25.5,-0.78,0.59,2.15,1721228108796
9.36,-33.83,78.45,-2.66,1.11,0.6,1721228108806
-22.1,53.07,20.42,1.7,-0.58,-0.03,1721228108816
4.5,-38.13,-65.59,2.12,-2.89,-0.89,1721228108826
2.9,78.45,-78.45,-3.3,2.89,-1.32,1721228108836
-13.74,22.68,68.45,0.97,-1.37,-0.18,1721228108846
-16.88,-75.98,19.49,1.1,0.23,-0.01,1721228108856
-11.97,-9.21,38.18,-0.21,0.25,-0.07,1721228108866
-6.58,21.06,7.52,0.39,-0.87,0.75,1721228108876
-6.08,20.79,7.95,-1.15,0.18,1.44,1721228108886
29.2,-5.85,35.73,-0.74,1.13,0.83,1721228108896
9.3,-2.8,-6.67,0.45,-0.97,-0.93,1721228108906
-7.26,6.91,-16.94,0.84,-0.19,-1.06,1721228108916
-4.61,-0.61,-8.1,0.38,-0.17,0.08,1721228108926
-4.47,6.96,27.62,-0.6,0.18,0.44,1721228108936
3.54,30.99,55.44,0.21,-0.42,1.16,1721228108946
11.3,-9.66,-18.58,0.11,-0.61,0.9,1721228108956
15.52,-35.38,-2.62,-1.3,0.68,-0.62,1721228108966
-2.64,19.19,56.52,-0.16,-0.42,-1.6,1721228108976
-9.53,20.76,-0.62,1.68,-0.98,-1.66,1721228108986
-17.08,-16.24,-26.03,-0.61,0.13,-0.57,1721228108996
-17.78,-2.12,2.69,-0.1,0.1,1.38,1721228109006
5.05,-31.51,4.03,-1.05,0.35,1.73,1721228109016
8.29,33.38,65.67,0.02,0.37,0.65,1721228109026
13.9,0.83,-3.4,0.47,-1.66,0.23,1721228109036
11.69,-21.83,3.11,-0.86,1.15,-0.93,1721228109046
-6.57,-1.34,33.6,0.13,-0.93,-1.49,1721228109056
-6.72,2.68,-2.99,1.01,-0.26,-0.83,1721228109066
-10.44,-13.25,-29.81,0.29,-0.26,0.55,1721228109076
-2.95,32.95,1.47,0.54,0.56,0.97,1721228109086
5.6,-7.86,31.08,-1.38,-0.02,0.53,1721228109096
-3.28,-1.8,78.45,-0.67,0.04,0.27,1721228109106
9.13,-26.97,-7.98,0.75,-1.76,-0.28,1721228109116
3.44,24.67,4.99,-0.4,1.6,-0.46,1721228109126
2.65,21.45,5.8,0.28,-0.79,-0.15,1721228109136
-0.96,-16.29,-29.68,0.39,-0.1,-0.42,1721228109146
1.3,-2.47,-28.04,0.09,0.58,-0.8,1721228109156
-3.23,1.3,7.54,-0.4,0.15,-0.25,1721228109166
-11.33,-51.89,69.32,-2.56,0.01,-0.61,1721228109176
-24.33,78.45,78.45,2.35,-1.91,-0.62,1721228109186
-7.53,-60.23,-26.6,2.76,-1.08,0.66,1721228109196
8.23,67.11,-59.85,-3.16,0.61,1.57,1721228109206
22.2,54.8,-8.22,1.18,0.61,0.22,1721228109216
6.2,-77.83,-6.81,0.33,-0.12,-0.51,1721228109226
4.65,20.5,56.09,0.54,0.78,-1.12,1721228109236
-3.88,22.88,-13.02,1.33,-1.38,-0.56,1721228109246
-1.96,17.39,-8.26,-0.61,0.89,-0.21,1721228109256
-6.11,0.09,24.86,-0.37,0.14,0.89,1721228109266
9.0,-13.57,32.87,-0.05,0.39,0.86,1721228109276
25.39,-19.27,-5.57,0.95,-0.42,0.27,1721228109286
14.33,12.51,-9.74,0.57,0.6,-0.39,1721228109296
4.32,-23.53,0.69,-0.68,-0.08,-0.85,1721228109306
-7.34,8.59,40.36,0.54,0.4,-1.05,1721228109316
-9.0,13.36,-3.85,1.29,-0.48,0.17,1721228109326
-2.65,5.27,-26.2,-0.29,0.24,0.64,1721228109336
-5.07,-60.29,14.09,-1.83,-0.05,-0.09,1721228109346
14.77,38.87,78.45,0.34,-0.25,0.26,1721228109356
7.39,-16.21,-11.31,0.81,-1.1,0.59,1721228109366
6.03,52.67,33.16,0.09,1.15,-0.15,1721228109376
7.31,32.29,1.34,0.29,-1.19,-0.93,1721228109386
-1.88,-35.93,-17.91,-1.07,0.81,-1.48,1721228109396
-8.58,1.5,1.46,-0.18,-0.35,-0.41,1721228109406
-6.99,-16.41,-11.19,0.01,0.2,0.14,1721228109416
-2.93,-5.94,33.06,0.15,0.17,0.28,1721228109426
1.88,22.96,23.89,0.89,-0.36,0.45,1721228109436
3.81,-3.2,-6.52,-1.38,0.18,-0.38,1721228109446
-0.85,7.3,51.58,-1.0,0.55,-0.74,1721228109456
-3.17,-3.85,-3.22,1.18,-1.01,-0.08,1721228109466
6.74,2.33,-41.34,-0.1,0.77,0.15,1721228109476
5.19,-0.6,-6.34,-0.43,0.19,-0.26,1721228109486
1.18,-13.98,30.51,-0.44,0.06,-0.5,1721228109496
-2.64,8.95,31.38,0.06,-0.26,-0.29,1721228109506
-0.02,-38.88,7.36,-1.15,0.59,-0.02,1721228109516
-4.29,-11.82,49.81,-0.66,0.45,0.59,1721228109526
8.92,17.25,4.58,1.3,-0.37,0.85,1721228109536
12.47,3.17,-36.19,0.22,0.07,-0.2,1721228109546
4.2,56.97,22.45,0.4,1.0,-1.12,1721228109556
-2.97,-8.21,13.48,-0.88,-0.97,-1.17,1721228109566
-15.12,-66.42,33.06,-2.01,0.34,-0.73,1721228109576
-23.65,28.19,32.98,1.07,-0.08,1.1,1721228109586
-0.58,-6.89,-52.49,-0.55,-0.41,0.82,1721228109596
11.79,-30.45,44.4,-1.37,1.84,-0.53,1721228109606
-11.82,8.45,55.3,1.81,-1.0,-0.34,1721228109616
-3.67,5.19,12.3,1.11,1.06,-0.59,1721228109626
-7.63,-19.8,20.27,-0.67,-0.59,0.41,1721228109636
6.64,41.87,37.67,0.7,0.68,0.65,1721228109646
2.89,17.71,-13.22,1.26,-0.73,0.4,1721228109656
11.11,-18.06,-33.07,-0.74,0.32,-0.19,1721228109666
-4.98,-30.74,31.18,-1.45,0.05,-0.98,1721228109676
11.98,20.82,63.02,0.28,0.07,-0.07,1721228109686
-5.88,-2.4,-26.7,0.28,-0.36,-0.47,1721228109696
-1.42,-5.49,15.75,-1.01,1.11,-0.27,1721228109706
-10.05,-16.87,23.39,0.55,-0.77,0.14,1721228109716
-0.79,20.68,8.25,0.79,0.71,0.1,1721228109726
0.17,8.21,-6.83,0.25,-0.39,0.45,1721228109736
3.51,4.85,26.57,-0.32,1.0,-0.2,1721228109746
0.23,-20.42,11.44,0.38,-1.07,0.1,1721228109756
6.51,10.5,4.46,0.25,1.18,-0.06,1721228109766
0.13,-11.07,-16.01,-0.01,-1.03,-0.17,1721228109776
-3.03,8.2,37.06,-0.49,1.79,-0.75,1721228109786
-5.21,17.79,24.59,1.29,-1.14,-0.25,1721228109796
-1.13,-15.96,-2.83,-0.35,0.93,-0.38,1721228109806
-5.48,-20.13,34.26,-0.45,-0.13,0.72,1721228109816
7.13,11.01,2.48,1.15,0.35,0.67,1721228109826
5.89,-8.25,-36.62,0.65,-0.53,-0.15,1721228109836
5.42,23.15,7.47,0.15,1.39,-1.09,1721228109846
-3.38,11.18,7.08,0.24,-0.85,-0.76,1721228109856
-12.71,-0.17,54.08,-1.35,1.6,-1.35,1721228109866
-24.87,15.69,21.16,1.12,-1.49,-0.54,1721228109876
-12.51,-26.2,-42.46,-0.52,-0.17,1.39,1721228109886
2.39,-6.56,17.29,-2.0,0.46,2.35,1721228109896
11.7,-0.08,55.05,0.27,0.96,1.38,1721228109906
15.57,-6.14,-7.5,1.44,-0.53,-0.78,1721228109916
10.11,5.86,-3.83,-0.37,0.18,-2.24,1721228109926
-8.55,-2.91,29.93,0.11,-0.71,-1.67,1721228109936
-12.18,-3.71,-1.31,0.95,0.14,0.57,1721228109946
-0.88,39.09,36.58,-0.14,0.94,0.57,1721228109956
-2.39,68.4,22.47,0.78,-0.61,0.06,1721228109966
-5.27,-57.86,-32.97,-1.44,-0.44,-1.33,1721228109976
-14.99,-4.36,20.06,-0.8,0.96,-0.45,1721228109986
-11.27,-1.08,10.88,1.03,-0.76,0.78,1721228109996
-6.49,-27.21,-12.17,-0.06,0.52,1.54,1721228110006
9.73,13.02,14.8,0.97,0.2,1.74,1721228110016
18.96,27.16,3.06,0.53,-0.01,1.42,1721228110026
17.43,13.62,11.41,-0.44,0.47,0.14,1721228110036
14.78,-22.81,27.99,-0.82,-0.3,-1.35,1721228110046
-5.77,10.29,17.02,1.04,-0.71,-2.04,1721228110056
-7.55,10.63,-14.72,0.73,-0.28,-1.14,1721228110066
-18.16,25.54,-5.84,-0.47,0.41,0.96,1721228110076
-1.31,-19.03,4.43,-1.76,0.36,1.63,1721228110086
6.64,-33.74,29.88,-0.78,0.62,-0.12,1721228110096
-2.13,-6.62,47.31,0.97,-0.47,-0.64,1721228110106
-8.17,-12.9,2.05,0.45,-0.37,-0.39,1721228110116
-12.33,10.1,16.18,-0.0,0.73,-0.07,1721228110126
-12.01,39.93,13.29,0.9,-0.94,1.55,1721228110136
7.31,-22.82,-13.84,-1.06,0.64,1.57,1721228110146
9.31,3.35,21.35,-0.26,0.37,0.64,1721228110156
15.37,14.78,-20.06,0.83,-1.24,0.09,1721228110166
12.99,1.11,-25.07,-0.18,0.89,-0.35,1721228110176
2.28,-14.58,70.27,-0.84,0.44,-1.63,1721228110191
4.91,-2.63,78.45,-1.02,-0.06,-1.83,1721228110195
-18.67,36.38,23.63,1.68,-1.14,-1.51,1721228110205
-17.97,-9.32,-51.63,-0.5,-0.17,0.9,1721228110215
-6.03,-8.08,36.7,-1.56,1.13,2.23,1721228110225
0.11,-16.34,29.88,0.79,0.07,1.9,1721228110235
15.82,16.86,-5.96,0.98,-0.25,0.6,1721228110245
16.25,21.62,-14.45,0.27,0.1,-0.37,1721228110255
7.87,19.04,-5.72,0.14,-0.05,-0.71,1721228110265
3.28,-27.49,-6.73,-1.77,-0.19,-0.99,1721228110275
10.21,-27.99,78.45,-1.69,0.46,-1.64,1721228110285
-14.77,44.88,74.97,2.01,-1.71,-0.53,1721228110295
-14.07,6.55,-71.73,3.44,-0.52,-1.2,1721228110305
-17.98,-28.0,-48.62,-2.11,-0.36,0.8,1721228110315
-14.38,30.14,52.05,-0.36,1.12,1.84,1721228110325
10.16,40.92,33.23,1.35,0.45,1.66,1721228110335
15.38,-4.51,-17.48,-0.47,-0.94,1.04,1721228110345
17.54,-15.65,2.29,-0.6,0.74,-0.65,1721228110355
6.13,-12.79,-22.55,0.51,-0.72,-1.43,1721228110365
0.99,17.69,27.92,0.35,0.48,-1.46,1721228110375
-13.04,2.92,17.46,0.94,-0.77,-0.42,1721228110385
-3.75,-39.09,30.42,-0.97,0.19,-0.05,1721228110395
-17.04,7.49,44.41,0.14,-0.03,-0.12,1721228110405
-2.71,17.9,0.83,-0.04,-0.75,-0.09,1721228110415
-6.83,29.76,-34.63,0.82,0.27,0.7,1721228110425
7.38,-0.35,-26.79,0.06,0.56,0.6,1721228110435
-7.92,-12.01,34.63,-1.06,0.5,-0.48,1721228110445
2.43,-12.59,76.3,-0.23,-0.67,-0.14,1721228110455
3.55,13.56,-6.3,1.97,-0.99,0.6,1721228110465
12.21,-26.4,-49.6,0.29,-0.42,0.62,1721228110475
3.76,-4.91,10.66,-0.67,1.46,-0.79,1721228110485
-2.07,22.96,25.21,0.55,-0.61,-1.04,1721228110495
-3.0,24.8,11.11,-0.23,0.22,-0.46,1721228110505
-8.42,11.28,32.99,0.04,-0.54,1.34,1721228110515
8.6,-20.39,-11.94,-0.11,0.7,0.69,1721228110525
6.03,3.23,-20.98,0.26,-0.25,0.04,1721228110535
5.44,-28.21,-17.98,-0.51,0.31,-0.57,1721228110545
-6.15,-3.27,31.05,-0.01,0.15,-1.0,1721228110555
-5.51,30.61,11.55,1.57,-0.41,0.14,1721228110565
0.25,29.09,19.91,-0.52,0.44,0.85,1721228110575
2.31,21.4,56.86,-0.55,-0.07,1.11,1721228110585
11.68,-20.55,-3.69,0.22,-0.16,-0.2,1721228110595
-0.97,-53.17,-29.81,-0.44,0.23,-0.95,1721228110605
-11.5,35.3,44.37,-0.26,0.54,-1.04,1721228110615
-15.09,4.5,8.43,1.78,-1.07,-0.72,1721228110625
-8.4,30.02,-14.5,0.75,0.51,1.2,1721228110635
7.24,33.48,-5.23,-0.07,0.11,2.11,1721228110645
15.3,-37.62,-12.56,-2.03,0.57,0.38,1721228110655
10.93,-3.18,56.57,-0.94,0.86,-1.94,1721228110665
-6.43,3.17,13.81,2.25,-1.71,-1.02,1721228110675
0.35,-19.88,-42.84,-0.44,0.45,0.09,1721228110685
-5.76,-5.1,31.12,-1.15,1.11,0.07,1721228110695
-27.67,-22.36,45.21,1.58,-0.65,-0.28,1721228110705
15.28,26.91,-3.88,1.52,0.85,0.32,1721228110715
0.21,53.09,-21.76,-0.19,-0.31,0.9,1721228110725
4.46,-2.32,5.23,-3.14,0.74,0.42,1721228110735
11.26,-62.84,66.35,-1.79,0.45,-0.9,1721228110745
-5.06,-3.74,33.76,1.92,-0.89,-0.25,1721228110755
6.26,3.56,-35.59,0.33,0.16,-0.04,1721228110765
-3.54,-6.85,7.54,-0.45,0.18,-0.9,1721228110775
-9.66,4.37,11.08,0.81,-1.15,-0.33,1721228110785
-6.1,27.21,0.5,0.15,0.38,0.23,1721228110795
-5.92,-16.68,-5.46,-1.56,-0.4,0.42,1721228110805
-9.24,-11.99,69.06,-1.58,1.04,-0.7,1721228110815
-2.53,-0.96,30.08,0.93,-1.0,0.08,1721228110825
2.83,10.16,-23.91,-0.0,0.28,0.68,1721228110835
7.73,19.6,13.29,-0.77,0.55,0.4,1721228110845
4.34,15.43,9.48,0.37,-1.03,-0.04,1721228110855
5.39,-41.28,-6.81,-1.83,0.2,-0.79,1721228110865
-7.19,7.16,39.36,-1.29,0.36,-1.53,1721228110875
-6.32,17.25,-0.05,1.51,-1.17,-0.4,1721228110885
-7.79,-18.16,-17.59,-0.29,0.63,-0.01,1721228110895
-5.12,0.62,43.21,0.5,-0.41,1.03,1721228110905
10.18,31.87,32.68,1.58,0.81,1.46,1721228110915
9.44,20.0,-12.66,0.78,-0.11,0.96,1721228110925
13.88,-25.02,-23.75,-0.47,-0.16,-0.12,1721228110935
2.42,-26.56,-6.46,-0.34,0.59,-0.87,1721228110945
-6.51,-23.02,33.42,0.09,-0.3,-0.71,1721228110955
-11.85,-2.47,57.79,-0.59,0.24,-0.41,1721228110965
-3.97,48.14,56.77,0.93,-0.32,0.51,1721228110975
-2.77,11.49,-29.13,0.71,-0.14,0.64,1721228110985
4.43,-1.95,-9.98,0.08,0.36,0.82,1721228110995
8.25,-27.6,-23.6,-0.19,-0.21,0.65,1721228111005
9.15,-19.14,-1.99,-0.28,1.19,0.1,1721228111015
0.09,-4.3,56.66,0.0,0.17,-0.88,1721228111025
0.74,2.1,59.82,0.92,-0.06,-0.9,1721228111035
-2.32,29.78,-11.92,0.87,-0.2,0.54,1721228111045
8.21,-14.06,-12.07,-1.04,0.31,0.3,1721228111055
-7.52,-19.04,31.34,-1.09,0.4,-0.72,1721228111065
-2.09,2.74,4.28,0.97,-0.66,-1.05,1721228111075
-11.49,-27.21,-31.86,-0.34,0.01,-0.14,1721228111085
-8.57,14.48,40.63,-0.67,0.88,0.67,1721228111095
3.67,-0.47,26.99,1.14,-1.04,0.94,1721228111105
7.11,36.59,-3.85,1.14,0.7,0.26,1721228111115
12.45,29.22,-16.15,0.11,-0.27,-0.07,1721228111125
3.86,-14.79,21.34,-1.83,0.91,-1.12,1721228111135
-3.15,-37.8,36.49,0.09,-0.23,-1.41,1721228111145
-16.47,6.86,-27.9,1.4,-0.55,-0.61,1721228111155
-11.93,-11.51,-32.61,-0.83,0.42,0.59,1721228111165
7.01,-27.93,54.45,-1.51,1.38,1.02,1721228111175
-0.31,31.29,71.63,1.99,-0.73,1.66,1721228111185
22.35,23.01,-24.62,1.75,-0.3,0.34,1721228111195
22.66,-27.81,4.67,-2.06,1.12,-1.44,1721228111205
-8.12,9.11,63.19,0.15,-0.75,-2.13,1721228111215
-10.97,-14.26,-28.22,0.68,-0.53,-1.15,1721228111225
-22.8,-23.65,-9.12,-0.83,0.97,0.06,1721228111235
-8.23,-7.93,41.11,0.11,0.0,1.41,1721228111245
12.58,14.23,14.99,0.88,0.61,1.48,1721228111255
17.17,42.33,-16.83,0.68,-0.03,0.47,1721228111265
8.55,-35.65,-6.89,-1.93,0.21,-1.39,1721228111275
-6.58,-4.93,54.79,-0.74,0.16,-2.0,1721228111285
-10.88,15.62,22.91,1.05,-0.78,-1.07,1721228111295
-21.37,4.7,5.35,-0.3,0.04,-0.0,1721228111305
-6.04,26.24,24.37,0.17,0.61,1.21,1721228111315
-1.59,-13.91,-26.58,0.74,-0.72,1.27,1721228111325
12.89,-4.3,-12.3,0.02,1.25,0.53,1721228111335
6.59,-13.91,9.34,0.37,-0.4,-0.22,1721228111345
8.76,27.72,42.75,0.62,0.54,-0.7,1721228111355
-5.08,54.21,18.16,0.64,-0.62,-0.56,1721228111365
-5.71,-64.02,-0.2,-2.57,-0.23,-0.91,1721228111375
-16.47,1.89,60.39,-1.08,0.43,-0.28,1721228111385
-7.81,18.55,-4.62,1.87,-1.39,0.89,1721228111395
6.54,-39.26,-54.37,0.55,0.68,1.75,1721228111405
12.87,-9.57,-6.34,-1.04,1.08,1.2,1721228111415
10.5,27.8,49.92,0.28,0.38,-0.1,1721228111425
10.91,27.76,40.25,0.56,-0.45,-0.9,1721228111435
-2.89,50.83,-0.98,0.27,-0.85,-1.04,1721228111445
-10.38,2.05,-31.42,-0.73,-0.42,-0.12,1721228111455
-11.51,-74.94,30.94,-2.24,0.24,0.27,1721228111465
-7.0,6.45,47.83,0.86,-0.94,0.1,1721228111475
-3.72,6.39,-44.74,1.57,-0.69,0.37,1721228111485
10.76,-7.34,-37.12,-0.47,1.04,1.06,1721228111495
14.47,-1.32,47.04,0.46,0.5,0.44,1721228111505
6.57,9.11,42.64,0.75,-0.83,0.29,1721228111515
4.66,-6.22,4.42,-0.54,0.33,-0.57,1721228111525
-9.96,7.83,-21.82,0.09,-1.34,-0.34,1721228111535
-2.7,-29.7,0.69,-1.3,0.81,-0.39,1721228111545
-8.7,-4.73,58.44,-0.31,0.2,-0.1,1721228111555
-1.64,33.52,-1.6,1.93,-0.36,0.5,1721228111565
9.29,-2.56,-58.66,-0.36,-0.4,0.82,1721228111575
0.72,-34.97,13.82,-2.45,1.61,0.33,1721228111585
-0.84,-13.84,67.91,-0.75,-0.32,-0.45,1721228111595
0.72,35.85,-6.18,1.65,-1.11,-0.77,1721228111605
-6.02,17.77,4.93,-0.52,0.98,-0.15,1721228111615
-8.71,3.66,49.79,-0.88,0.09,0.84,1721228111625
0.44,-6.66,-3.18,0.27,-0.55,0.71,1721228111635
8.46,0.3,-25.82,0.25,0.37,0.48,1721228111645
7.52,-9.98,10.13,-0.41,0.54,-0.08,1721228111655
0.61,3.44,26.14,0.34,-0.75,-0.24,1721228111665
-2.95,19.07,6.77,0.33,-0.22,-0.62,1721228111675
-7.33,13.23,6.61,-0.35,-0.43,0.37,1721228111685
-0.16,-53.79,30.38,-1.97,0.35,1.2,1721228111695
1.83,16.11,43.76,0.59,0.32,0.25,1721228111705
0.26,1.16,-41.47,1.68,-1.28,0.28,1721228111715
9.02,-8.34,-26.06,-0.27,1.04,-0.06,1721228111725
-3.54,6.17,32.95,0.83,-0.31,-0.87,1721228111735
-8.55,26.79,28.94,1.46,-0.76,0.23,1721228111745
1.29,19.36,3.45,-0.47,-0.08,0.91,1721228111755
7.64,-14.26,-5.98,-1.17,-0.17,0.91,1721228111765
11.07,-41.01,15.82,-0.97,0.81,-0.34,1721228111775
-5.01,9.73,41.4,1.42,-0.25,-1.37,1721228111785
-6.03,-4.18,-44.19,1.36,-0.61,-0.75,1721228111795
-9.15,-41.25,8.55,-1.51,1.25,-0.68,1721228111805
-17.04,28.89,78.45,0.92,-1.71,0.76,1721228111815
10.48,53.27,-21.04,2.33,-0.32,1.53,1721228111825
19.12,3.02,-49.04,-0.52,0.25,1.52,1721228111835
11.37,-19.82,27.49,-1.96,2.03,-0.84,1721228111845
-6.35,-28.75,41.19,0.56,-1.07,-2.35,1721228111855
-24.97,6.54,4.44,1.89,-0.91,-0.99,1721228111865
-2.78,24.88,-9.46,0.01,-0.12,1.32,1721228111875
4.03,15.33,-3.25,-0.14,0.41,1.14,1721228111885
13.42,-47.44,2.21,-1.13,-0.09,-0.14,1721228111895
-2.01,-0.99,42.31,-0.05,0.26,-1.5,1721228111905
1.35,-3.06,4.57,0.51,-0.9,-0.67,1721228111915
-15.82,23.3,39.82,0.1,1.05,0.08,1721228111925
-4.31,28.13,26.45,1.18,-0.63,1.54,1721228111935
9.59,19.97,-17.18,-0.11,0.43,1.52,1721228111945
15.85,-51.58,-24.31,-0.56,-0.19,0.06,1721228111955
11.93,13.22,-1.22,-0.12,0.9,-1.45,1721228111965
-0.39,3.4,-30.54,0.26,-1.39,-1.28,1721228111975
-6.9,-36.5,-7.24,-1.65,1.21,-0.99,1721228111985
-27.03,3.16,78.45,-0.46,-0.18,-0.56,1721228111995
-10.97,43.34,78.45,2.75,-0.28,0.59,1721228112005
-3.81,13.64,-45.85,0.22,-0.24,1.56,1721228112015
20.76,33.32,-0.32,-1.59,1.74,0.82,1721228112025
12.83,-45.34,-11.09,-0.51,-0.59,-0.46,1721228112035
18.55,-14.95,-30.32,0.41,-0.29,-1.56,1721228112045
-5.64,27.36,-31.33,0.4,0.16,-2.11,1721228112055
-19.63,-61.83,-7.48,-2.23,-0.7,-0.86,1721228112065
-28.57,32.5,78.45,-0.16,0.75,-0.29,1721228112075
-6.96,45.57,61.11,3.19,-0.79,1.35,1721228112085
5.35,27.13,-65.43,-1.73,-0.03,1.67,1721228112095
19.34,-4.48,-13.74,-2.17,1.05,0.7,1721228112105
18.63,-22.71,-11.58,0.57,0.39,-1.07,1721228112115
15.5,-34.22,-6.5,-0.71,-1.1,-2.22,1721228112125
-7.63,18.78,52.31,-0.05,-0.2,-3.36,1721228112135
-22.41,31.02,9.55,1.98,-1.32,-0.84,1721228112145
-15.5,18.96,-20.53,-1.93,1.07,0.82,1721228112155
-15.23,22.74,42.89,-1.12,0.52,0.92,1721228112165
-6.9,-63.18,-4.02,-0.81,0.06,0.16,1721228112175
7.14,2.26,17.45,0.21,1.05,-0.03,1721228112185
12.68,-8.01,-11.62,0.01,-0.8,0.77,1721228112200
18.94,1.5,0.14,-0.39,0.57,0.27,1721228112204
6.68,24.54,2.68,0.71,-0.16,-0.77,1721228112214
7.04,-1.93,-19.21,0.81,-0.89,-1.24,1721228112224
-10.27,-15.04,15.82,-1.07,1.18,-1.39,1721228112234
-11.73,37.01,50.98,0.43,-0.26,-0.43,1721228112244
-13.03,-17.87,-14.46,0.06,0.12,0.3,1721228112254
-4.97,2.48,30.41,-1.18,0.87,0.75,1721228112264
0.02,-22.51,38.03,-0.21,-0.58,1.43,1721228112274
14.18,33.1,-0.97,1.17,0.5,0.66,1721228112284
10.75,-11.68,-47.06,0.97,-0.96,-0.24,1721228112294
11.25,-28.53,-8.51,-0.8,1.21,-0.89,1721228112304
-11.44,24.43,78.45,-0.25,0.07,-1.19,1721228112314
-10.09,11.43,64.79,1.39,-0.76,-1.02,1721228112324
-13.5,0.64,-33.57,0.68,0.2,-0.3,1721228112334
-6.15,-0.83,29.78,-0.98,1.34,0.81,1721228112344
3.28,21.74,27.11,1.47,-0.41,1.41,1721228112354
10.33,-33.28,-46.2,1.19,-0.44,0.7,1721228112364
11.65,5.56,-0.84,-1.47,1.65,-0.41,1721228112374
8.7,3.22,42.01,-0.32,-0.86,-1.1,1721228112384
-8.1,-12.05,4.74,0.62,-0.07,-0.83,1721228112394
-7.32,-1.77,15.29,0.04,0.24,-0.24,1721228112404
-7.32,25.18,32.3,0.93,-0.05,0.36,1721228112414
3.11,20.4,-11.84,0.99,-0.1,0.94,1721228112424
6.97,-16.72,-35.35,-0.59,-0.1,0.53,1721228112434
7.13,-44.89,21.05,-1.69,0.73,-0.67,1721228112444
-4.32,21.08,76.03,1.05,-0.05,-0.73,1721228112454
-3.1,-0.11,-45.87,1.7,-0.82,-0.57,1721228112464
2.6,0.91,-57.82,-0.88,0.93,0.12,1721228112474
-3.83,-0.94,56.45,-1.88,0.31,0.33,1721228112484
39.33,30.65,42.37,-0.32,0.0,-0.55,1721228112494
-14.16,6.17,-22.31,1.32,-1.97,-0.23,1721228112504
12.53,-5.14,-17.6,-0.67,1.59,-0.88,1721228112514
-1.28,2.7,28.6,-0.85,-0.84,-0.27,1721228112524
-1.32,-7.28,-8.21,0.28,0.05,0.0,1721228112534
-3.56,3.84,-29.54,0.15,-0.15,0.05,1721228112544
0.64,-38.41,34.87,-1.97,0.52,-0.48,1721228112554
-1.93,36.18,78.45,1.09,-0.24,-0.03,1721228112564
3.28,0.8,-53.14,1.73,-1.04,-0.26,1721228112574
3.67,-5.97,-4.32,-2.43,1.53,-0.65,1721228112584
-18.71,12.07,48.73,-0.86,-0.19,-0.47,1721228112594
5.0,-30.9,-18.62,-0.2,0.01,0.04,1721228112604
-1.72,12.78,23.66,-0.19,1.25,-0.23,1721228112614
-1.79,-3.96,20.12,0.46,-1.36,0.2,1721228112624
2.73,27.71,0.22,0.55,1.42,0.32,1721228112634
4.5,-12.32,-30.45,-0.26,-1.13,0.39,1721228112644
8.24,-18.05,33.57,-1.87,1.9,-0.27,1721228112654
-10.63,42.19,55.73,1.07,-0.85,-0.87,1721228112664
-6.04,-38.08,-23.58,1.16,-1.3,-0.55,1721228112674
-7.98,12.01,-28.49,-1.87,1.82,0.05,1721228112684
-19.84,-0.4,78.35,0.53,-0.32,0.4,1721228112694
0.77,8.69,34.35,1.35,-0.09,0.98,1721228112704
8.73,-41.56,-38.99,-0.28,-0.1,0.37,1721228112714
2.58,4.55,53.15,-1.71,1.44,-0.35,1721228112724
1.43,43.12,54.55,0.23,-0.96,0.33,1721228112734
0.6,-26.09,-35.04,0.33,-0.4,-0.16,1721228112744
0.42,9.25,17.1,-1.24,1.26,0.04,1721228112754
11.34,-1.59,32.28,0.5,-0.58,0.5,1721228112764
4.94,10.71,9.66,0.95,0.34,0.08,1721228112774
2.8,18.0,-12.88,1.01,-0.49,0.34,1721228112784
1.97,-5.93,4.73,-0.87,0.55,-0.21,1721228112794
-1.9,23.59,46.02,-0.11,0.17,-0.21,1721228112804
1.76,-42.79,-16.33,-0.04,-0.94,-0.64,1721228112814
-10.75,2.73,4.78,-0.5,0.76,-0.66,1721228112824
-8.27,-0.19,47.36,-0.8,-0.32,0.19,1721228112834
-5.9,25.12,45.96,1.16,-0.41,1.46,1721228112844
11.27,-4.6,-45.43,0.64,-0.68,0.65,1721228112854
10.82,-18.87,-18.26,-2.1,1.57,-0.97,1721228112864
-11.81,21.35,65.21,0.3,-0.79,-1.6,1721228112874
-4.36,3.47,-17.53,1.98,-0.22,-0.85,1721228112884
-22.46,13.81,-12.1,0.02,0.17,0.9,1721228112894
1.3,8.28,49.5,-1.5,1.31,1.59,1721228112904
3.57,-11.38,37.57,0.49,0.28,0.7,1721228112914
13.31,-4.32,-37.49,1.05,-0.97,-0.45,1721228112924
7.08,-6.57,-40.93,-0.14,0.74,-0.61,1721228112934
-8.81,-16.41,15.52,-0.43,-0.13,-1.2,1721228112944
-11.06,25.76,68.54,0.28,-0.01,-0.88,1721228112954
-15.33,-4.3,12.66,0.16,-0.36,0.19,1721228112964
1.51,-12.49,6.19,-0.85,1.45,0.72,1721228112974
2.73,-17.88,14.85,0.27,-0.49,0.54,1721228112984
2.21,1.31,-9.51,0.92,0.08,-0.46,1721228112994
-2.52,19.52,10.11,0.09,0.22,-0.7,1721228113004
-6.82,9.48,28.36,-0.2,0.16,-0.05,1721228113014
-3.53,1.36,17.75,-0.23,0.26,0.21,1721228113024
-1.25,-9.12,3.78,-0.69,-0.02,0.3,1721228113034
6.45,-14.67,14.98,-0.53,0.47,0.33,1721228113044
1.96,-16.83,10.48,0.82,-0.48,-0.33,1721228113054
-1.32,-2.95,-8.23,0.74,0.01,-0.98,1721228113064
-7.71,11.14,28.1,-0.27,0.26,-0.52,1721228113074
-9.74,39.85,36.6,1.13,-0.4,0.55,1721228113084
1.6,17.76,-24.61,0.85,0.14,1.19,1721228113094
13.33,-24.71,-26.38,-1.32,0.88,0.61,1721228113104
9.33,-9.82,0.72,-0.09,0.26,-0.73,1721228113114
2.55,-39.25,8.47,-0.4,-0.09,-1.21,1721228113124
-17.34,-17.54,78.45,-0.89,0.22,-1.88,1721228113134
-21.95,62.63,63.27,2.89,-1.6,-0.07,1721228113144
-3.5,-9.33,-39.76,0.77,0.31,1.34,1721228113154
3.25,34.95,12.23,-0.96,1.83,1.08,1721228113164
5.67,-26.06,-18.86,-0.35,-0.77,-0.01,1721228113174
2.49,-27.54,-7.23,-0.67,0.66,-0.55,1721228113184
-6.05,15.61,57.67,0.28,-0.04,-0.23,1721228113194
7.83,31.83,20.91,1.45,-0.65,0.34,1721228113204
-10.9,12.11,-22.13,-0.42,0.14,0.24,1721228113214
1.1,-10.81,-2.81,-0.67,0.13,-0.26,1721228113224
-3.08,-22.34,-13.9,0.04,-0.12,-0.43,1721228113234
-9.09,-19.48,5.55,-0.81,0.35,-0.25,1721228113244
-0.75,18.77,74.72,-0.07,0.02,0.95,1721228113254
3.7,29.08,51.05,1.19,-0.47,1.85,1721228113264
12.39,0.71,-13.02,-0.38,0.39,1.02,1721228113274
12.19,-0.05,1.49,-0.31,0.95,-1.4,1721228113284
-2.94,0.85,-17.6,1.15,-1.31,-0.66,1721228113294
3.59,-19.18,-39.71,0.05,0.47,-0.01,1721228113304
-10.46,9.11,25.56,-1.08,0.44,0.06,1721228113314
-6.31,17.14,38.87,0.18,-0.95,-0.09,1721228113324
-11.64,-18.76,30.42,-1.2,-0.21,0.61,1721228113334
-5.68,29.28,73.35,0.06,0.4,1.38,1721228113344
15.02,-7.09,-11.23,0.26,0.11,1.28,1721228113354
18.77,-4.75,-26.84,0.3,0.75,0.46,1721228113364
16.44,-3.78,-33.15,-0.32,-0.39,-1.09,1721228113374
1.35,-2.9,26.12,-0.85,0.4,-2.49,1721228113384
-19.92,-0.31,21.04,-0.35,-1.95,-1.6,1721228113394
-27.12,32.21,31.4,0.76,0.57,0.13,1721228113404
-12.56,-10.26,-17.16,-0.17,-0.2,2.07,1721228113414
9.65,27.58,17.65,-0.59,1.2,2.2,1721228113424
20.91,-4.59,-10.2,0.52,-0.37,0.81,1721228113434
20.2,-5.64,-15.35,0.05,0.35,-1.19,1721228113444
0.13,-15.39,10.09,-0.77,-0.61,-2.46,1721228113454
-15.17,-10.88,50.17,-0.05,-0.06,-1.91,1721228113464
-21.16,17.07,13.77,0.61,-0.4,0.24,1721228113474
-8.7,-1.16,5.03,-0.77,0.66,1.29,1721228113484
-0.14,-5.56,17.25,0.17,-0.16,1.64,1721228113494
14.97,-24.5,-3.79,-0.37,0.17,0.71,1721228113504
9.74,28.9,21.43,0.41,0.5,-0.47,1721228113514
8.61,-0.63,-5.11,-0.12,-1.04,-1.03,1721228113524
-2.74,27.32,26.09,-0.01,0.75,-1.35,1721228113534
-8.22,-16.57,-6.98,-0.23,-1.36,-0.13,1721228113544
-4.44,-13.82,14.72,-1.17,1.85,0.21,1721228113554
-5.55,5.09,23.03,1.16,-0.82,0.96,1721228113564
7.54,-19.78,-20.18,0.18,0.15,0.4,1721228113574
1.38,-11.25,29.73,-0.41,0.47,-0.17,1721228113584
2.56,30.66,27.29,1.3,-0.47,-0.36,1721228113594
0.22,4.32,-2.01,0.05,-0.13,-0.16,1721228113604
0.36,39.65,51.24,-0.68,1.02,-0.3,1721228113614
-4.5,-43.77,3.51,0.23,-1.4,-0.77,1721228113624
-5.42,3.56,-23.29,0.35,0.88,-0.22,1721228113634
1.49,-9.7,-27.93,-0.04,-0.09,0.97,1721228113644
3.96,11.45,44.34,-0.61,1.5,0.56,1721228113654
-0.96,17.55,46.67,0.94,-0.75,0.77,1721228113664
16.96,-13.39,10.46,-0.82,0.92,-0.55,1721228113674
-11.19,-3.56,17.33,-0.15,-0.5,-1.26,1721228113684
-6.0,3.19,-5.33,0.43,0.59,-0.86,1721228113694
-14.86,-20.28,-15.42,0.46,-0.26,-0.02,1721228113704
-5.03,-5.4,2.63,0.48,0.47,1.05,1721228113714
2.11,14.6,44.29,-0.06,0.85,0.99,1721228113724
6.28,27.15,35.37,0.66,-0.07,0.3,1721228113734
9.01,-10.87,-23.63,-0.4,-0.62,-0.75,1721228113744
-0.87,-23.47,-1.85,-1.01,0.74,-1.31,1721228113754
-0.84,-22.44,40.71,0.1,-0.72,-0.47,1721228113764
-10.39,-5.94,12.45,0.81,0.03,0.41,1721228113774
-1.89,20.29,4.78,0.6,0.05,1.02,1721228113784
4.94,17.14,0.51,0.25,-0.03,0.82,1721228113794
9.17,16.76,-4.7,0.22,0.03,0.16,1721228113804
2.69,-53.39,-0.29,-1.57,-0.29,-0.73,1721228113814
-5.54,16.98,65.0,-0.4,0.48,-0.79,1721228113824
-4.99,20.11,-14.37,1.75,-1.28,0.13,1721228113834
-5.18,-11.31,-24.28,-1.32,0.86,0.53,1721228113844
-2.71,12.85,68.18,-0.94,0.07,0.96,1721228113854
7.54,-16.08,-0.83,0.79,-0.57,0.64,1721228113864
12.26,5.86,12.8,-0.53,1.3,-0.47,1721228113874
-6.47,6.29,40.42,-0.14,-0.89,-1.34,1721228113884
-11.36,6.71,0.85,0.74,-0.26,-0.81,1721228113894
-11.64,-5.3,-27.18,0.05,-0.5,0.85,1721228113904
-11.27,13.64,15.79,-0.43,0.8,1.38,1721228113914
7.39,-5.88,8.47,-0.04,-0.39,1.54,1721228113924
19.06,-21.32,1.31,0.2,0.17,0.64,1721228113934
9.21,3.0,2.98,0.34,-0.38,-0.21,1721228113944
10.31,-7.78,29.89,-0.87,0.47,-1.36,1721228113954
-31.81,27.96,62.5,0.82,-1.02,-1.2,1721228113964
-13.28,25.04,-10.23,1.22,-0.69,-0.05,1721228113974
-13.18,-33.43,-15.81,-2.04,0.58,1.11,1721228113984
-5.13,-7.77,49.61,-0.48,0.46,1.7,1721228113994
12.17,18.94,-11.15,1.68,-0.71,1.47,1721228114004
14.48,-20.62,-39.95,-0.71,-0.03,0.68,1721228114014
7.57,8.46,46.28,-1.15,1.23,-0.42,1721228114024
-20.7,-7.15,31.69,0.85,-1.19,-0.59,1721228114034
-1.16,6.4,-19.01,0.33,-0.53,-1.18,1721228114044
-3.37,-0.11,-30.26,-0.66,0.53,-0.29,1721228114054
-4.18,-36.24,10.62,-1.42,0.82,0.2,1721228114064
-8.72,-9.86,78.45,-0.11,-0.11,-0.29,1721228114074
-23.42,28.47,41.86,2.28,-1.28,0.2,1721228114084
-4.28,11.64,-28.2,-0.53,-0.38,-0.37,1721228114094
-5.94,30.21,-10.1,-0.68,0.83,0.02,1721228114104
4.49,-30.82,-28.09,-1.09,-0.09,0.24,1721228114114
0.2,-1.19,4.73,-0.41,0.81,-0.2,1721228114124
4.83,-46.26,45.6,-1.15,-1.06,0.85,1721228114134
5.24,55.7,78.45,1.11,1.06,0.95,1721228114144
21.0,-13.55,-58.74,-0.33,-0.42,-0.32,1721228114154
8.4,31.11,23.8,-0.39,1.42,-0.53,1721228114164
1.2,10.05,-36.18,0.69,-1.57,-0.23,1721228114174
10.54,-70.24,-25.0,-1.42,1.86,-1.2,1721228114184
-20.49,21.6,70.41,-0.2,-0.64,-1.43,1721228114194
-0.32,17.31,2.93,0.84,1.59,0.92,1721228114209
-20.93,11.62,-10.04,0.1,0.07,1.94,1721228114213
12.35,46.71,-1.52,0.54,0.34,2.17,1721228114223
18.61,16.85,-28.74,-0.28,0.05,1.06,1721228114233
30.54,-27.67,18.44,-2.03,0.77,-1.15,1721228114243
-13.8,-38.45,78.45,-0.28,-0.5,-3.51,1721228114253
-13.33,6.57,50.6,1.63,-2.09,-1.79,1721228114263
-17.66,28.14,-54.52,1.26,0.29,-1.2,1721228114273
-19.09,3.79,-6.5,1.3,0.01,1.57,1721228114283
1.34,21.22,-15.5,0.06,1.04,2.27,1721228114293
19.21,42.19,-0.86,-0.01,0.9,1.85,1721228114303
22.62,-76.05,12.84,-2.01,-0.4,-0.25,1721228114313
13.1,-19.51,78.45,-0.88,0.49,-2.35,1721228114323
-7.53,32.52,17.2,2.87,-1.85,-2.07,1721228114333
-7.05,-15.97,-55.67,1.16,-0.45,-2.19,1721228114343
-21.19,35.61,-1.41,-0.43,1.03,-0.7,1721228114353
-10.07,1.22,15.48,-0.73,0.07,1.42,1721228114363
-22.11,-7.45,28.58,-0.18,-0.36,1.47,1721228114373
16.08,1.68,4.99,1.54,-0.52,1.03,1721228114383
20.39,-18.21,-38.88,0.45,-0.03,0.15,1721228114393
3.03,5.58,40.41,-0.65,0.87,-2.28,1721228114403
-13.46,35.57,31.59,1.96,-1.51,-2.2,1721228114413
-7.63,-9.22,-51.17,-0.17,-0.29,-0.52,1721228114423
-11.26,-5.94,-19.5,-2.44,0.92,1.12,1721228114433
-20.49,-32.85,50.37,-0.34,0.8,0.29,1721228114443
4.24,-0.51,40.03,1.76,-0.94,0.2,1721228114453
15.04,23.17,-18.64,0.33,-0.23,0.64,1721228114463
7.51,-24.58,38.73,-1.63,1.63,-1.24,1721228114473
-20.61,-2.3,31.34,0.73,-1.75,-2.93,1721228114483
-15.78,13.91,-47.64,1.52,-0.1,-0.52,1721228114493
-9.55,21.5,-41.31,-0.69,1.22,2.51,1721228114503
10.69,19.5,23.63,-0.46,1.34,2.94,1721228114513
15.21,-33.02,8.2,-2.4,-0.16,0.46,1721228114523
25.18,15.8,78.45,0.53,-0.1,-1.69,1721228114533
-3.44,-22.4,14.46,2.69,-2.53,-1.7,1721228114543
2.27,38.81,-50.18,1.79,-0.07,0.03,1721228114553
-4.27,12.0,-34.73,-1.44,0.82,1.09,1721228114563
9.56,4.53,40.68,-1.77,0.47,0.45,1721228114573
-3.9,-44.19,40.82,-0.18,-0.25,0.19,1721228114583
2.49,-3.16,16.52,0.65,0.01,-0.27,1721228114593
-2.62,4.33,-18.81,0.14,-0.22,-0.79,1721228114603
-9.54,-7.39,-11.02,0.22,0.13,-0.56,1721228114613
-9.46,-17.7,3.22,-0.11,-0.24,0.95,1721228114623
2.06,28.56,53.21,-0.01,0.99,1.31,1721228114633
4.07,24.49,23.25,0.98,-0.94,0.55,1721228114643
13.38,-9.84,-34.6,-1.19,-0.61,-0.38,1721228114653
4.34,-31.53,28.23,-1.25,0.84,-0.99,1721228114663
9.07,-7.22,46.8,0.91,-1.0,-0.62,1721228114673
-2.23,2.79,-29.8,0.68,-0.2,-0.16,1721228114683
-3.23,-1.11,7.29,-0.28,1.17,0.07,1721228114693
-8.74,25.63,52.94,1.32,-0.49,0.13,1721228114703
1.72,50.15,-27.75,0.71,-0.65,0.15,1721228114713
14.71,-9.45,-55.88,-2.55,-0.07,0.66,1721228114723
4.66,-78.09,66.94,-1.54,1.62,-0.56,1721228114733
-28.6,-13.44,77.0,3.02,-2.67,-1.35,1721228114743
-12.89,10.95,-49.68,0.91,-0.37,-0.7,1721228114753
-5.86,6.73,-5.07,-0.89,0.61,0.72,1721228114763
5.01,51.47,42.36,0.51,-0.25,0.79,1721228114773
12.39,52.59,-51.69,-0.5,-0.64,0.57,1721228114783
26.42,-72.04,4.72,-3.41,1.82,-0.8,1721228114793
9.24,-33.18,78.45,1.36,0.66,-2.92,1721228114803
4.68,26.57,-43.97,3.88,-2.54,-1.53,1721228114813
-0.81,-28.38,-46.26,-1.17,2.27,0.69,1721228114823
12.45,55.78,78.45,0.19,0.8,1.57,1721228114833
9.25,24.83,-32.63,2.4,-1.71,1.32,1721228114843
20.01,-47.62,-56.84,-1.38,0.78,0.51,1721228114853
14.99,-5.11,4.3,-1.27,2.0,-0.71,1721228114863
-0.78,-10.61,31.74,0.94,-0.95,-1.2,1721228114873
-10.16,11.13,29.21,1.18,0.2,-1.61,1721228114883
-18.39,8.75,4.35,-0.07,-0.79,-0.11,1721228114893
-10.22,8.06,25.08,-0.9,0.81,1.26,1721228114903
6.59,-25.69,16.27,-0.43,0.38,1.46,1721228114913
13.04,11.73,-9.01,1.13,0.16,0.45,1721228114923
19.77,10.97,-50.56,0.73,-0.56,-0.12,1721228114933
12.02,12.57,-7.03,-1.57,1.58,-1.3,1721228114943
-24.52,-17.82,78.45,-2.6,-0.32,-2.75,1721228114953
-33.49,35.62,78.45,3.08,-2.84,-1.95,1721228114963
-23.12,-58.21,-66.04,1.18,-0.75,0.63,1721228114973
-13.32,13.15,-38.17,-1.29,1.33,3.15,1721228114983
5.49,4.44,-9.59,0.02,1.51,2.21,1721228114993
22.08,-5.29,-9.03,-0.06,-0.22,-0.11,1721228115003
9.42,6.11,78.45,-0.73,0.72,-2.12,1721228115013
16.05,-3.81,78.45,1.24,-0.25,-1.85,1721228115023
-23.9,6.74,-22.1,0.88,-1.43,-0.36,1721228115033
-15.7,-48.38,-25.01,-0.69,0.58,1.7,1721228115043
4.15,42.33,22.06,0.82,1.28,2.87,1721228115053
29.26,13.52,-45.91,0.99,0.03,1.68,1721228115063
26.72,-4.44,-7.45,-1.65,1.4,-1.33,1721228115073
-7.0,-2.26,78.45,-0.25,-1.65,-3.28,1721228115083
-15.78,6.77,35.13,2.5,-0.72,-2.29,1721228115093
-23.44,23.88,-66.53,0.44,-0.61,0.66,1721228115103
-12.38,8.38,-36.33,-1.34,0.59,2.76,1721228115113
4.08,-36.13,52.93,-2.06,1.08,1.89,1721228115123
3.6,32.54,63.26,0.44,-0.68,-0.11,1721228115133
18.67,8.52,-50.76,0.54,-3.16,-0.87,1721228115143
-0.22,-32.49,10.19,-0.89,1.53,-0.25,1721228115153
-6.26,23.55,39.14,1.6,-0.86,0.25,1721228115163
-4.78,30.36,-35.55,0.73,-0.15,0.47,1721228115173
7.85,17.72,-11.13,-2.18,0.74,0.57,1721228115183
3.74,-66.5,63.08,-2.28,-0.3,-0.3,1721228115193
-12.62,20.68,78.45,3.14,-0.74,-1.39,1721228115203
-7.62,-13.17,-37.57,2.85,-1.94,-1.12,1721228115213
-6.72,31.78,-48.72,-1.18,2.08,0.99,1721228115223
0.94,24.13,12.23,-0.34,0.38,2.32,1721228115233
17.61,19.35,-21.36,-0.49,0.79,0.87,1721228115243
15.81,-27.24,38.27,-2.24,0.18,-1.13,1721228115253
-7.74,-16.49,69.27,1.06,-0.81,-2.26,1721228115263
-21.72,8.01,-34.8,1.38,-1.55,-0.73,1721228115273
-11.53,2.43,-15.91,-0.68,0.64,1.4,1721228115283
-0.44,-24.96,27.06,0.0,0.3,2.1,1721228115293
11.64,2.44,16.08,0.88,-0.06,0.98,1721228115303
18.33,25.39,-14.36,-0.42,-0.14,0.0,1721228115313
8.48,3.48,19.64,-0.94,0.77,-1.01,1721228115323
-6.79,-15.93,32.49,0.39,-1.21,-0.89,1721228115333
-12.26,24.98,15.74,0.8,-0.04,0.02,1721228115343
3.69,-14.97,-9.01,-0.47,-0.14,1.2,1721228115353
3.42,5.87,16.29,0.03,1.07,0.16,1721228115363
8.05,8.5,4.85,-0.04,-0.91,-0.82,1721228115373
-4.53,5.81,19.67,-0.29,0.15,-1.04,1721228115383
-7.2,-16.89,14.17,0.38,-0.57,-0.59,1721228115393
-13.7,12.37,-20.11,0.52,-0.31,0.24,1721228115403
1.38,-1.97,-3.31,-1.64,0.61,1.16,1721228115413
1.42,-8.41,78.45,-0.95,0.2,0.29,1721228115423
7.27,2.12,1.86,2.02,-1.45,-0.29,1721228115433
5.26,-10.59,-35.52,-0.03,0.46,-0.17,1721228115443
-3.2,13.08,31.61,-0.5,0.25,0.32,1721228115453
9.08,20.75,-7.64,0.69,-0.54,0.26,1721228115463
10.33,-10.57,-31.23,-0.44,0.2,-0.21,1721228115473
0.22,-24.87,39.38,-1.43,0.88,-1.01,1721228115483
-1.4,-13.76,70.43,0.81,-0.51,-1.23,1721228115493
-18.51,25.7,-5.23,2.05,-0.76,-0.32,1721228115503
-3.02,0.43,-27.49,0.35,0.32,1.07,1721228115513
-3.18,12.63,25.67,-0.26,1.06,1.72,1721228115523
15.02,13.61,10.29,0.33,0.09,0.42,1721228115533
13.07,-1.68,-22.98,-0.17,-0.27,-0.49,1721228115543
14.83,-9.76,7.13,-1.35,0.65,-1.01,1721228115553
-2.58,-3.05,36.69,-0.1,-0.19,-1.26,1721228115563
4.57,-13.57,27.09,0.94,-0.74,-1.26,1721228115573
-17.71,-14.49,-5.01,-0.35,-0.48,0.13,1721228115583
-8.38,19.26,44.6,0.17,1.12,0.92,1721228115593
4.12,52.7,25.21,1.51,-0.72,0.74,1721228115603
13.87,39.26,-59.96,-0.53,-0.71,0.68,1721228115613
21.83,-59.58,-7.0,-3.62,1.56,0.49,1721228115623
-2.89,-20.28,78.45,0.06,0.84,-2.15,1721228115633
-2.72,22.26,-41.82,2.8,-4.24,-1.92,1721228115643
2.09,4.34,-78.45,0.04,0.93,0.2,1721228115653
3.33,11.27,48.59,-1.07,1.43,0.84,1721228115663
-4.19,32.06,46.92,1.15,-0.41,0.16,1721228115673
-6.68,-8.8,-7.98,-0.18,-0.67,-0.44,1721228115683
-4.08,-11.19,-13.18,-0.68,0.39,0.3,1721228115693
4.22,-21.5,2.9,-0.13,0.48,0.77,1721228115703
2.69,17.01,37.9,0.98,0.62,0.04,1721228115713
3.84,27.43,-8.65,0.7,-1.13,-0.03,1721228115723
7.8,-10.16,-10.72,-2.19,1.08,-0.43,1721228115733
-1.43,-5.38,54.85,-0.79,-0.11,-0.5,1721228115743
-11.93,-26.02,9.31,1.28,-0.85,-0.83,1721228115753
-12.04,21.6,-44.04,1.13,-0.37,0.19,1721228115763
0.87,-2.1,-33.66,-0.51,0.7,0.77,1721228115773
2.99,4.42,45.2,-1.44,0.62,0.04,1721228115783
-1.56,-11.83,65.6,0.35,-0.95,-0.88,1721228115793
-10.31,-27.55,-2.35,1.02,-0.67,-0.76,1721228115803
-7.26,-6.49,-7.15,0.11,-0.62,1.09,1721228115813
2.74,42.66,29.17,1.08,1.41,1.48,1721228115823
19.19,22.78,-39.67,0.58,-1.08,0.89,1721228115833
28.55,-1.63,-33.09,-1.73,1.41,-0.19,1721228115843
8.51,-15.17,15.99,-1.94,0.62,-1.93,1721228115853
-8.64,-41.72,78.45,0.13,-0.73,-3.23,1721228115863
-23.33,4.85,-36.19,2.28,-0.43,-2.67,1721228115873
-28.37,25.43,-50.17,2.08,-0.98,0.97,1721228115883
2.38,-6.28,-44.85,-2.29,1.41,3.58,1721228115893
13.18,-0.05,46.26,-0.51,2.13,3.43,1721228115903
28.71,-20.02,-36.79,0.8,-0.98,1.19,1721228115913
32.65,-11.88,-2.29,-0.35,0.22,-1.83,1721228115923
-4.09,44.07,60.61,0.53,-0.42,-2.82,1721228115933
-6.75,28.17,-8.43,0.81,-1.94,-1.41,1721228115943
-18.85,-27.52,-17.29,-2.86,1.35,0.23,1721228115953
0.57,-22.02,72.65,-0.96,0.57,0.91,1721228115963
-14.32,-24.93,32.72,1.68,0.45,-0.43,1721228115973
-1.07,12.1,-34.12,0.89,-0.71,-0.85,1721228115983
-2.32,45.24,-5.92,-0.61,0.66,0.34,1721228115993
-3.45,13.31,30.24,-0.66,-0.36,1.33,1721228116003
5.29,-29.32,19.37,-0.44,0.78,-0.08,1721228116013
2.02,5.14,14.59,0.86,-0.87,-0.72,1721228116023
0.69,5.68,-32.22,-0.23,-0.11,0.03,1721228116033
2.88,9.22,25.59,-0.84,1.11,0.05,1721228116043
-10.93,-21.3,34.51,0.37,-1.05,-0.5,1721228116053
-0.88,2.44,-15.21,0.35,-0.1,-0.74,1721228116063
-1.52,-2.6,-17.81,-0.68,0.35,0.2,1721228116073
-3.68,-0.79,71.35,-0.33,1.03,0.24,1721228116083
-8.92,38.07,56.73,2.72,-1.42,0.4,1721228116093
9.92,-24.68,-38.2,-1.5,-0.13,0.46,1721228116103
3.21,-11.31,46.52,-1.66,1.74,-0.62,1721228116113
-10.19,-5.12,18.08,1.39,-2.77,-1.07,1721228116123
-6.5,8.12,-47.83,0.87,0.29,-0.09,1721228116133
0.67,-6.26,-25.33,-1.1,0.73,1.3,1721228116143
3.29,15.61,74.2,-0.19,0.95,0.22,1721228116153
