AccX,AccY,AccZ,GyrX,GyrY,GyrZ,Time
-0.96,-0.08,12.39,0.07,0.08,0.02,1721743885608
0.67,1.78,11.8,0.1,0.15,0.09,1721743885618
1.78,3.29,9.36,0.11,0.08,0.01,1721743885627
0.02,0.79,7.85,-0.02,0.05,-0.06,1721743885636
-0.26,-0.82,11.34,0.02,0.17,-0.05,1721743885645
-0.94,-0.73,9.48,0.11,0.04,-0.01,1721743885654
-1.92,0.67,7.6,0.08,0.1,0.06,1721743885663
-0.69,2.5,11.31,0.05,0.22,0.09,1721743885672
-0.7,3.03,13.39,0.09,0.01,0.12,1721743885681
-0.6,1.08,11.02,0.11,0.09,0.14,1721743885690
0.81,2.02,12.71,0.07,0.11,0.1,1721743885699
-0.81,0.18,9.35,0.13,-0.07,0.11,1721743885708
-0.3,0.4,6.63,0.12,0.09,0.04,1721743885717
-0.46,-2.63,6.96,0.03,-0.0,0.1,1721743885726
-3.07,1.36,9.78,0.09,0.03,0.19,1721743885735
-0.18,4.63,11.12,0.13,0.05,0.23,1721743885744
-0.58,1.48,8.16,0.06,-0.07,0.15,1721743885753
-0.72,1.46,11.78,0.07,0.07,0.12,1721743885762
-0.92,-1.85,10.04,0.04,-0.1,0.2,1721743885771
-0.1,0.67,12.21,0.08,0.08,0.17,1721743885780
-0.53,1.61,8.03,0.12,-0.21,0.23,1721743885789
0.66,0.81,10.39,0.06,0.09,0.14,1721743885798
-0.39,3.93,9.03,0.12,-0.19,0.08,1721743885807
-0.53,0.77,7.13,0.01,-0.02,0.04,1721743885816
-2.39,-2.96,10.8,-0.12,-0.1,0.1,1721743885825
-2.36,-0.13,12.65,0.09,-0.09,0.23,1721743885834
0.65,2.83,8.31,0.05,-0.11,0.28,1721743885843
0.07,11.26,8.81,0.11,-0.12,0.17,1721743885852
1.49,-0.02,6.34,-0.1,-0.15,0.06,1721743885861
-0.91,-5.28,11.35,-0.24,-0.08,-0.03,1721743885870
-1.92,1.84,13.09,0.04,-0.15,-0.01,1721743885879
-1.89,-1.65,8.12,-0.16,-0.2,0.09,1721743885888
-3.13,4.64,13.27,-0.14,-0.04,0.27,1721743885897
3.09,0.98,11.25,0.02,-0.11,0.31,1721743885906
2.48,-1.49,8.37,-0.07,-0.17,0.08,1721743885915
2.03,-2.24,11.01,-0.16,-0.09,-0.13,1721743885924
-2.43,3.37,10.07,-0.09,-0.21,-0.18,1721743885934
-4.49,0.62,14.01,-0.08,-0.07,0.01,1721743885943
-3.59,-2.52,9.88,-0.04,-0.31,0.44,1721743885952
2.65,-1.31,8.43,-0.08,0.09,0.41,1721743885961
3.07,5.55,9.02,0.01,-0.26,0.05,1721743885970
0.72,5.57,5.0,-0.01,-0.14,-0.24,1721743885979
-2.32,-1.02,10.67,-0.24,-0.1,-0.16,1721743885988
-4.74,-1.36,17.5,0.01,-0.11,0.03,1721743885997
-1.93,-3.51,4.98,0.09,-0.34,0.29,1721743886006
1.2,-0.95,6.54,-0.27,0.08,0.36,1721743886015
3.57,6.35,16.73,-0.1,-0.09,0.23,1721743886024
4.3,1.45,11.85,-0.01,-0.3,-0.11,1721743886033
1.87,2.88,8.86,0.08,-0.09,-0.32,1721743886042
-0.02,-3.77,6.85,-0.02,-0.22,-0.38,1721743886051
-5.73,-2.01,9.11,-0.08,-0.09,-0.18,1721743886060
-2.52,-0.0,15.21,-0.06,0.02,0.12,1721743886069
-1.28,5.22,12.76,0.07,-0.23,0.31,1721743886078
4.02,2.14,9.51,-0.01,0.03,0.2,1721743886087
4.11,0.03,12.05,-0.04,-0.12,-0.09,1721743886096
2.8,-3.28,14.51,-0.02,-0.08,-0.38,1721743886105
-2.09,0.06,12.08,0.07,-0.2,-0.31,1721743886114
-0.57,-2.81,7.72,-0.11,-0.02,-0.1,1721743886123
-1.12,2.16,13.89,-0.02,0.04,0.11,1721743886132
2.83,1.9,9.86,0.14,-0.11,0.07,1721743886141
2.74,0.46,5.93,-0.01,-0.01,-0.25,1721743886150
0.58,-0.53,8.24,-0.08,-0.04,-0.42,1721743886159
-2.21,-0.26,11.21,-0.14,-0.04,-0.29,1721743886168
-2.59,-2.22,14.89,-0.1,0.04,-0.11,1721743886177
-1.37,0.41,11.4,0.1,-0.11,0.08,1721743886186
2.55,0.7,8.97,0.03,0.1,0.06,1721743886195
1.45,5.37,10.13,0.02,-0.03,-0.11,1721743886204
2.75,-1.97,7.59,-0.05,0.05,-0.31,1721743886213
0.55,-0.18,14.66,-0.04,0.11,-0.33,1721743886222
-0.73,5.26,12.16,0.2,-0.04,-0.11,1721743886231
2.06,1.28,8.32,0.04,0.19,-0.13,1721743886241
0.92,-2.66,8.65,0.1,-0.07,-0.19,1721743886251
1.25,3.57,8.42,0.11,0.3,-0.27,1721743886260
0.61,7.75,14.54,0.04,0.11,-0.32,1721743886269
-1.28,3.0,13.6,0.08,0.07,-0.27,1721743886278
0.33,-9.67,9.89,-0.07,0.17,-0.26,1721743886287
-4.69,2.82,14.44,0.14,0.08,-0.24,1721743886297
-1.91,6.15,11.34,0.1,0.19,-0.18,1721743886306
-2.41,7.16,12.74,0.12,0.09,-0.11,1721743886315
-0.35,-2.05,4.11,0.11,-0.01,-0.07,1721743886324
-3.38,-4.0,10.78,0.06,0.02,-0.24,1721743886338
-1.64,-0.02,10.45,0.14,-0.05,-0.17,1721743886342
-1.84,5.18,12.32,0.23,0.13,-0.04,1721743886351
1.64,5.69,6.43,0.25,-0.02,0.1,1721743886360
2.15,3.26,6.21,0.17,0.16,-0.12,1721743886369
1.07,-1.09,6.84,0.08,-0.03,-0.46,1721743886378
-3.04,-0.4,9.1,0.05,0.05,-0.43,1721743886388
-3.7,-1.76,8.83,-0.05,0.02,-0.02,1721743886397
-2.23,2.82,12.77,0.01,0.23,0.05,1721743886406
0.23,1.75,10.67,0.17,-0.06,-0.1,1721743886415
-0.66,-1.06,9.47,0.07,0.1,-0.22,1721743886424
-1.26,-1.65,12.35,0.05,0.01,0.01,1721743886433
2.11,-0.69,12.65,0.13,0.28,0.05,1721743886442
2.56,4.16,9.73,0.3,0.07,-0.24,1721743886451
-0.09,0.9,4.88,0.16,0.04,-0.41,1721743886460
-0.29,-6.81,11.66,0.01,0.22,-0.12,1721743886469
-0.71,-6.56,15.9,0.16,0.14,-0.01,1721743886478
3.02,4.61,6.54,0.28,0.06,0.05,1721743886487
3.5,1.17,12.94,-0.17,0.3,-0.2,1721743886496
1.16,1.34,22.23,0.1,0.06,-0.16,1721743886505
1.92,1.15,8.1,0.15,0.09,-0.35,1721743886514
-2.86,-4.15,4.27,-0.06,0.11,-0.51,1721743886523
-7.28,-1.79,7.96,-0.18,0.01,-0.09,1721743886532
-5.82,7.75,11.03,-0.1,0.09,0.39,1721743886541
1.13,1.57,3.64,-0.36,0.07,0.44,1721743886550
2.85,3.02,8.06,-0.46,0.26,0.01,1721743886559
0.51,-2.6,11.2,-0.42,-0.13,-0.33,1721743886568
-5.49,-3.21,13.93,-0.53,0.07,-0.22,1721743886577
-4.33,-0.47,19.14,-0.36,0.07,0.24,1721743886586
-1.68,4.3,11.07,-0.13,-0.07,0.56,1721743886595
3.06,-1.38,0.69,-0.27,0.05,0.37,1721743886604
1.83,0.91,8.87,-0.39,0.1,-0.06,1721743886613
-0.55,-1.35,12.03,-0.13,-0.11,-0.38,1721743886622
-5.2,-1.37,6.11,-0.02,-0.2,-0.08,1721743886631
-4.24,3.18,8.1,-0.22,0.1,0.33,1721743886640
-1.41,0.88,12.96,-0.35,-0.09,0.36,1721743886649
-0.51,-2.92,21.72,-0.37,0.1,0.26,1721743886658
2.99,3.23,12.88,0.12,-0.3,0.34,1721743886667
5.28,1.05,-0.39,-0.11,0.1,0.23,1721743886676
2.29,0.01,10.15,-0.3,0.08,-0.2,1721743886685
-1.78,1.31,17.09,0.05,-0.14,-0.51,1721743886694
-4.32,5.7,9.32,0.17,-0.27,0.01,1721743886703
-2.06,8.71,9.09,0.13,0.23,0.45,1721743886712
2.03,3.97,12.74,-0.01,0.03,0.36,1721743886721
2.32,-2.32,17.5,-0.06,0.01,-0.21,1721743886730
-0.37,8.67,16.29,0.3,-0.19,-0.02,1721743886739
1.74,4.61,6.95,0.22,-0.08,0.22,1721743886748
2.04,2.57,15.6,0.11,0.14,-0.03,1721743886757
-0.18,0.95,19.79,0.43,-0.18,-0.26,1721743886766
-0.88,4.38,5.78,0.56,-0.16,-0.13,1721743886775
-0.03,-1.63,6.08,0.17,0.13,-0.02,1721743886784
-1.59,5.39,15.73,0.33,0.02,-0.04,1721743886793
0.32,-0.65,5.49,0.36,-0.09,-0.2,1721743886802
-1.9,-1.09,8.0,0.11,0.09,-0.09,1721743886811
0.39,10.93,12.02,0.27,0.08,0.09,1721743886820
2.31,8.12,7.85,0.05,0.02,-0.02,1721743886829
1.51,-5.5,8.38,0.01,0.07,-0.26,1721743886838
0.49,-13.01,1.95,-0.08,0.01,-0.45,1721743886847
-2.8,-4.39,0.68,-0.18,0.14,-0.36,1721743886856
-2.01,0.84,0.25,-0.23,0.09,-0.11,1721743886865
-0.44,-1.33,12.1,-0.41,0.37,-0.06,1721743886874
-2.57,8.55,25.53,-0.07,-0.01,-0.12,1721743886883
2.63,-5.43,7.29,0.02,-0.06,-0.16,1721743886892
4.29,-6.66,-6.44,-0.47,0.34,-0.28,1721743886901
0.94,-7.62,12.59,-0.74,0.37,-0.6,1721743886910
-5.37,2.8,30.14,-0.26,0.1,-0.82,1721743886919
-6.63,-1.1,14.05,0.18,-0.14,-0.44,1721743886928
-5.29,-7.68,1.36,-0.08,0.17,0.11,1721743886938
-0.01,-0.26,7.2,-0.42,0.38,0.26,1721743886947
2.94,1.61,15.78,-0.44,0.25,-0.21,1721743886956
0.82,5.32,15.86,-0.1,0.01,-0.6,1721743886965
-1.43,-4.39,0.64,-0.11,-0.15,-0.49,1721743886974
-3.3,0.4,5.07,-0.4,0.42,-0.34,1721743886983
-3.65,5.58,14.9,-0.26,0.02,0.0,1721743886992
-1.65,9.12,14.28,-0.06,0.16,0.15,1721743887001
2.55,-0.53,7.22,-0.0,0.01,0.12,1721743887010
1.81,-10.86,14.15,-0.6,0.31,-0.27,1721743887019
-3.97,14.07,27.37,-0.06,-0.02,-0.33,1721743887028
-2.11,9.44,12.6,0.37,-0.22,0.08,1721743887037
-1.27,2.87,0.9,0.22,0.26,0.11,1721743887046
-0.08,-0.28,11.51,0.2,0.21,0.07,1721743887055
-1.48,7.16,15.76,0.38,0.16,0.05,1721743887064
1.27,9.89,13.3,0.52,0.12,0.11,1721743887073
2.0,-0.63,13.94,0.41,0.18,0.08,1721743887082
-1.0,5.02,12.72,0.48,0.01,-0.14,1721743887091
-0.44,1.89,7.16,0.5,0.1,-0.23,1721743887100
-1.88,-2.09,8.13,0.34,0.12,0.02,1721743887109
-0.63,-0.85,14.14,0.44,0.23,0.14,1721743887118
1.59,0.13,7.54,0.54,0.02,0.09,1721743887127
2.14,-0.58,4.71,0.38,0.23,-0.16,1721743887136
-0.97,6.64,12.41,0.42,0.13,-0.21,1721743887145
-1.54,2.54,9.72,0.34,0.07,-0.09,1721743887154
-2.83,1.99,9.28,0.38,0.14,-0.09,1721743887163
-1.35,-4.7,2.89,0.33,-0.02,0.05,1721743887172
-1.49,-0.21,-3.9,0.22,0.17,0.06,1721743887181
0.29,-2.91,-1.24,-0.07,0.17,0.07,1721743887190
0.64,-3.08,13.1,-0.18,0.23,0.06,1721743887199
-0.48,-3.75,19.37,0.09,0.03,0.02,1721743887208
-0.59,0.9,9.79,0.24,-0.09,0.1,1721743887217
1.21,4.45,0.92,-0.01,0.11,0.05,1721743887226
0.69,2.94,9.79,-0.37,0.19,-0.0,1721743887235
-0.96,-3.67,16.79,-0.24,-0.04,-0.09,1721743887244
-1.13,-3.83,9.9,0.04,-0.02,-0.08,1721743887253
-1.45,-1.72,-7.59,-0.04,-0.15,0.05,1721743887262
0.02,-3.74,3.87,-0.55,0.42,0.08,1721743887271
-2.0,1.78,27.62,-0.41,0.15,0.12,1721743887280
-1.78,5.12,17.27,0.1,-0.23,0.2,1721743887290
5.73,-2.17,1.37,-0.0,0.11,0.13,1721743887299
1.78,-11.65,5.53,-0.49,0.02,-0.15,1721743887308
1.62,2.91,21.9,-0.36,0.25,-0.31,1721743887317
-2.86,5.27,13.34,0.06,-0.22,-0.25,1721743887326
-2.13,-7.52,4.72,-0.11,0.05,-0.06,1721743887335
-2.24,-3.21,9.26,-0.26,0.15,0.05,1721743887344
-1.01,7.39,16.02,-0.28,0.24,0.2,1721743887353
1.53,12.1,17.67,-0.07,0.13,0.13,1721743887362
2.26,5.66,12.23,0.12,0.0,-0.06,1721743887371
1.02,-9.38,3.73,-0.11,-0.01,-0.23,1721743887380
-2.36,-2.27,13.75,-0.25,0.25,-0.31,1721743887390
-5.11,7.65,10.55,-0.02,-0.09,-0.02,1721743887399
-2.66,6.45,9.3,-0.23,0.23,0.26,1721743887408
0.15,0.46,9.43,-0.07,0.01,0.32,1721743887417
2.49,-3.39,7.84,-0.26,0.14,0.1,1721743887426
1.5,-0.12,17.48,-0.23,0.16,-0.16,1721743887435
-1.12,1.3,13.93,-0.01,-0.13,-0.19,1721743887444
-3.07,0.65,5.52,-0.13,0.04,-0.11,1721743887453
-4.29,3.65,10.75,-0.14,0.12,0.05,1721743887462
-1.99,-3.35,8.2,-0.07,-0.06,0.31,1721743887471
0.27,-0.77,10.34,-0.18,0.22,0.24,1721743887480
1.34,0.08,14.68,-0.23,0.01,0.07,1721743887489
0.56,5.08,16.99,-0.09,0.08,-0.11,1721743887498
-2.54,1.69,6.3,0.04,-0.25,-0.05,1721743887507
-1.91,-4.12,2.81,-0.24,0.2,0.11,1721743887516
-0.53,-2.0,18.53,-0.18,0.15,0.2,1721743887525
0.16,1.81,14.16,0.13,-0.19,0.25,1721743887534
4.05,4.31,5.59,0.06,0.15,0.03,1721743887543
1.17,0.46,11.63,-0.11,-0.06,-0.16,1721743887552
-1.03,-0.67,17.14,0.01,0.04,-0.15,1721743887561
-1.11,0.29,16.55,0.1,0.0,-0.05,1721743887570
-3.29,4.95,9.38,0.27,-0.1,0.15,1721743887579
0.4,2.89,1.99,0.12,0.11,0.23,1721743887588
0.62,0.73,10.71,0.03,0.15,0.16,1721743887597
-0.57,-1.27,13.1,0.16,-0.1,0.17,1721743887606
1.41,2.66,10.36,0.22,0.15,0.01,1721743887615
-1.62,1.16,6.05,0.25,-0.24,0.08,1721743887624
-0.11,-1.79,9.58,0.04,0.18,0.19,1721743887633
0.32,4.82,17.73,0.25,-0.01,0.31,1721743887642
2.59,3.7,9.76,0.28,-0.06,0.17,1721743887651
1.52,3.5,6.56,0.25,0.03,-0.09,1721743887660
0.25,-4.34,7.82,0.14,-0.06,-0.18,1721743887669
-3.39,-0.72,11.64,0.18,0.07,-0.07,1721743887678
-2.46,0.64,9.86,0.18,-0.03,0.2,1721743887687
-1.87,0.08,10.38,0.14,0.03,0.23,1721743887696
1.23,-0.23,9.71,0.21,-0.05,0.22,1721743887705
1.02,-0.33,8.55,0.13,0.02,0.11,1721743887714
1.15,1.41,12.46,0.12,-0.02,0.03,1721743887723
0.18,0.56,13.42,0.09,-0.02,-0.09,1721743887732
-1.32,2.75,10.71,0.26,-0.15,-0.03,1721743887741
-0.71,-3.78,3.89,0.05,-0.07,0.09,1721743887750
-0.58,0.84,11.41,0.0,0.09,0.19,1721743887759
1.83,0.45,8.66,0.09,-0.21,0.17,1721743887768
2.3,1.79,8.59,-0.04,0.11,-0.07,1721743887777
0.07,2.41,7.54,0.04,-0.25,-0.16,1721743887786
-0.43,-4.41,8.73,-0.21,0.13,-0.12,1721743887795
-2.97,-1.35,15.04,-0.09,-0.11,0.05,1721743887804
0.17,-0.22,8.16,0.01,0.01,0.09,1721743887813
1.02,-0.46,6.73,-0.15,-0.02,0.03,1721743887822
1.41,0.4,11.26,-0.15,0.05,-0.15,1721743887831
0.24,0.96,12.31,-0.04,-0.04,-0.21,1721743887840
-1.37,1.78,8.66,-0.02,-0.06,-0.16,1721743887849
-1.91,-2.13,9.79,-0.12,0.02,-0.06,1721743887858
-2.14,-0.17,15.05,-0.11,-0.02,0.08,1721743887867
-1.22,3.47,12.54,0.04,-0.05,0.08,1721743887876
0.43,-1.72,4.65,-0.08,-0.11,0.1,1721743887885
-0.01,3.88,10.57,-0.09,0.16,-0.01,1721743887894
0.78,3.15,12.17,0.05,-0.21,-0.04,1721743887903
-0.09,3.0,8.37,0.01,0.01,-0.08,1721743887912
-1.03,1.26,9.84,-0.01,-0.08,-0.08,1721743887921
-1.02,2.31,11.51,-0.05,0.0,-0.01,1721743887930
-0.4,0.47,11.7,-0.02,-0.09,0.11,1721743887940
1.55,-0.38,12.26,0.0,0.01,0.08,1721743887949
0.83,0.6,10.83,0.09,-0.14,-0.12,1721743887958
0.35,6.51,13.71,0.16,0.02,-0.26,1721743887967
-2.44,8.35,12.44,0.26,-0.2,-0.13,1721743887976
-2.11,2.75,9.75,0.14,-0.01,-0.07,1721743887985
-2.29,0.34,11.38,0.18,-0.07,0.02,1721743887994
-0.43,-0.54,7.68,0.17,-0.05,0.09,1721743888003
-0.22,4.93,8.66,0.24,-0.01,0.07,1721743888012
0.65,-1.46,5.51,0.2,-0.14,0.04,1721743888021
0.51,1.92,9.98,0.13,0.17,0.05,1721743888030
0.39,2.93,6.25,0.25,-0.18,0.0,1721743888039
0.57,-4.83,6.11,-0.1,0.13,-0.16,1721743888048
-1.32,-3.51,15.07,-0.01,-0.08,-0.05,1721743888057
1.74,-7.49,12.34,0.08,-0.05,0.11,1721743888066
1.16,4.21,14.28,0.15,0.04,-0.01,1721743888075
0.23,8.13,9.63,0.3,-0.1,-0.26,1721743888084
-0.74,-6.71,7.49,-0.06,-0.08,-0.37,1721743888093
-5.36,-6.96,13.35,-0.02,0.1,-0.25,1721743888102
-4.76,-0.85,9.12,0.08,-0.1,-0.12,1721743888111
-4.99,3.56,5.68,-0.06,0.03,0.06,1721743888120
-0.61,1.55,11.54,-0.04,0.14,0.28,1721743888129
1.4,-6.69,7.56,-0.12,-0.15,0.21,1721743888138
3.81,-0.35,12.56,-0.16,0.24,-0.03,1721743888147
3.04,9.31,10.9,0.03,-0.14,-0.08,1721743888156
2.78,6.0,5.06,-0.17,0.1,-0.1,1721743888165
1.28,-1.11,9.06,-0.32,0.07,-0.22,1721743888174
-1.14,-1.95,16.12,-0.22,0.17,-0.47,1721743888183
-4.97,2.72,10.32,0.04,-0.22,-0.05,1721743888192
-0.08,4.0,6.09,-0.22,0.38,0.22,1721743888201
2.4,3.52,13.58,-0.25,0.19,0.14,1721743888210
4.45,-0.92,14.12,-0.2,0.22,-0.25,1721743888219
-0.68,2.67,14.53,-0.07,0.02,-0.52,1721743888228
-1.87,4.99,10.83,-0.05,0.12,-0.42,1721743888237
-4.43,4.12,9.3,-0.1,0.07,-0.15,1721743888246
-1.66,-6.05,8.51,-0.29,0.1,-0.06,1721743888255
-1.27,0.06,14.97,-0.1,0.11,0.0,1721743888264
2.65,4.86,4.24,0.1,-0.1,0.01,1721743888273
3.51,-1.65,3.86,-0.25,0.21,-0.29,1721743888282
-1.15,-8.01,15.65,-0.39,0.0,-0.5,1721743888291
-1.88,-2.03,18.33,0.01,0.1,-0.59,1721743888300
-3.24,0.53,6.0,0.17,-0.07,-0.32,1721743888309
-2.75,-3.69,7.03,-0.21,0.2,-0.05,1721743888318
-2.51,0.34,17.32,-0.06,0.14,-0.02,1721743888327
0.05,0.19,8.07,0.03,0.15,-0.26,1721743888341
-2.32,-0.33,4.77,0.04,-0.03,-0.28,1721743888345
-1.18,-2.94,4.32,-0.2,0.09,-0.2,1721743888354
-0.96,2.33,13.95,-0.06,0.25,-0.19,1721743888363
-1.46,0.26,10.75,0.07,-0.27,-0.07,1721743888372
-1.64,-2.01,8.46,-0.03,0.16,-0.09,1721743888381
0.77,-1.8,13.65,-0.04,0.12,-0.1,1721743888391
-2.83,1.63,13.01,0.02,-0.12,-0.16,1721743888400
-2.3,5.48,14.14,0.11,0.09,-0.09,1721743888409
-1.13,3.6,8.19,0.22,-0.11,0.23,1721743888418
1.75,-0.14,5.55,0.12,0.16,0.31,1721743888427
3.21,0.37,10.35,0.11,0.13,0.17,1721743888436
3.12,-0.6,14.36,0.03,0.09,-0.16,1721743888445
-1.61,8.52,16.69,0.24,-0.08,-0.3,1721743888454
-1.58,3.85,7.58,0.19,-0.13,0.0,1721743888463
-0.58,1.15,12.34,0.03,0.14,0.25,1721743888472
1.5,2.06,13.31,0.15,-0.07,0.26,1721743888481
4.41,3.43,8.95,0.06,0.16,-0.0,1721743888490
0.58,7.86,10.54,0.21,-0.05,-0.37,1721743888499
-2.65,1.81,2.19,0.11,-0.11,-0.25,1721743888508
-3.74,0.45,5.13,-0.14,0.35,0.08,1721743888517
-2.54,-7.02,11.39,-0.15,0.06,0.42,1721743888526
0.06,-2.95,12.28,-0.11,0.21,0.43,1721743888535
3.67,-1.59,8.34,-0.09,0.12,0.31,1721743888544
2.64,-2.77,10.63,-0.17,0.16,-0.04,1721743888553
0.3,-7.02,15.7,-0.1,0.02,-0.17,1721743888562
-1.49,0.07,17.5,0.11,0.17,-0.19,1721743888571
-1.53,-2.26,5.9,0.08,-0.23,0.02,1721743888580
-0.64,-3.44,7.39,-0.27,0.35,0.16,1721743888589
-0.17,-1.65,13.18,-0.07,-0.05,0.22,1721743888598
2.21,-5.92,5.93,-0.04,0.09,-0.07,1721743888607
0.34,-0.92,6.88,-0.01,0.16,-0.18,1721743888616
-1.41,-2.8,4.76,-0.12,0.14,-0.15,1721743888625
-3.43,-2.96,14.04,-0.27,0.27,-0.03,1721743888634
-2.49,5.35,14.17,0.06,0.02,0.33,1721743888643
2.25,1.16,3.18,-0.01,0.1,0.43,1721743888652
5.36,1.51,8.46,-0.16,0.31,0.21,1721743888661
4.96,3.0,15.89,-0.02,0.18,0.07,1721743888670
3.71,4.16,18.43,0.05,0.16,-0.23,1721743888679
0.29,7.02,9.78,0.32,0.04,-0.31,1721743888688
-0.02,-6.24,2.6,-0.05,0.16,-0.13,1721743888697
-3.97,2.06,20.26,-0.14,0.49,-0.03,1721743888706
-2.02,8.09,18.54,0.36,-0.02,0.16,1721743888715
0.29,0.51,5.85,0.11,0.23,0.28,1721743888724
0.57,5.58,12.73,0.02,0.37,0.16,1721743888733
2.48,7.12,12.74,0.21,0.07,0.1,1721743888742
0.65,0.68,9.47,0.05,0.19,-0.04,1721743888751
-0.54,4.31,11.33,0.17,0.17,-0.11,1721743888760
-0.31,1.58,3.95,0.18,0.12,-0.09,1721743888769
-2.35,-5.88,3.93,-0.1,0.14,-0.0,1721743888778
0.83,-8.78,14.72,-0.25,0.22,0.15,1721743888787
1.34,-1.31,16.79,0.06,0.04,0.04,1721743888796
1.26,-0.16,7.68,0.28,-0.04,-0.34,1721743888805
-1.99,-2.46,4.29,0.01,0.15,-0.37,1721743888814
-4.51,-1.79,11.39,-0.07,0.27,-0.08,1721743888823
-2.47,-4.15,10.44,0.03,0.08,0.1,1721743888832
0.01,-5.03,7.62,-0.08,0.14,0.04,1721743888841
-0.57,-0.68,6.23,0.01,-0.04,0.07,1721743888850
-0.91,-3.72,6.67,-0.22,0.09,-0.04,1721743888859
-4.76,-4.31,15.12,-0.16,0.06,-0.11,1721743888868
-3.27,-2.58,13.0,-0.11,-0.1,0.16,1721743888877
-2.87,-3.31,11.54,-0.21,-0.02,0.44,1721743888886
0.08,3.74,12.71,-0.13,0.07,0.46,1721743888895
2.76,1.88,9.5,-0.24,-0.1,0.21,1721743888904
0.01,5.07,11.29,-0.06,-0.12,-0.02,1721743888913
-0.78,2.46,7.18,0.06,-0.36,0.09,1721743888922
-2.66,1.87,8.88,-0.01,-0.04,0.22,1721743888931
-2.96,3.99,19.17,-0.0,-0.16,0.27,1721743888941
-0.9,8.68,13.13,0.33,-0.34,0.49,1721743888950
2.46,1.08,6.73,0.08,-0.12,0.39,1721743888959
0.01,3.66,15.38,-0.06,-0.22,0.27,1721743888968
0.75,7.65,18.01,0.26,-0.26,0.08,1721743888977
-2.42,7.74,6.94,0.3,-0.47,0.15,1721743888986
-1.08,1.0,7.92,0.1,-0.08,0.27,1721743888995
-1.14,3.82,10.59,0.17,-0.24,0.4,1721743889004
-0.37,2.04,3.71,0.15,-0.19,0.38,1721743889013
1.61,0.57,5.79,-0.1,-0.06,0.32,1721743889022
0.34,0.33,8.66,-0.07,-0.26,0.3,1721743889031
1.41,-3.18,8.87,-0.16,-0.15,0.22,1721743889040
1.53,-2.8,10.58,-0.08,-0.3,0.15,1721743889050
1.27,-6.44,6.78,-0.16,-0.23,0.03,1721743889060
-0.87,-5.03,13.45,-0.1,-0.27,0.05,1721743889069
-0.39,-3.21,9.34,-0.06,-0.29,0.13,1721743889078
-0.01,-6.95,11.56,-0.2,-0.21,0.12,1721743889087
0.17,-6.45,17.39,-0.11,-0.09,-0.02,1721743889096
-1.89,-1.62,11.1,0.09,-0.41,-0.02,1721743889105
-0.41,-2.65,5.72,-0.07,-0.06,-0.08,1721743889114
-1.55,1.19,9.69,-0.16,-0.08,0.03,1721743889123
0.18,1.72,10.74,-0.1,0.01,0.1,1721743889132
1.43,-1.19,10.0,-0.14,-0.12,0.12,1721743889141
2.2,-5.62,10.44,-0.23,0.03,0.04,1721743889150
2.09,1.41,13.97,-0.09,-0.04,-0.14,1721743889159
1.46,3.38,9.05,-0.0,-0.18,-0.07,1721743889168
2.17,3.05,12.56,-0.08,0.14,-0.02,1721743889177
1.66,3.81,16.14,0.09,-0.05,-0.08,1721743889186
2.15,0.47,11.35,0.09,-0.07,-0.11,1721743889195
1.83,-1.5,14.45,-0.01,0.12,-0.18,1721743889204
0.62,5.88,14.64,0.24,-0.12,-0.16,1721743889213
1.36,5.7,11.86,0.32,0.11,-0.18,1721743889222
0.5,8.06,10.13,0.44,0.03,-0.13,1721743889231
1.15,3.9,7.92,0.39,0.15,-0.27,1721743889240
-1.2,1.18,5.71,0.31,-0.02,-0.21,1721743889249
1.5,-0.39,11.36,0.1,0.28,-0.11,1721743889258
0.54,2.57,12.0,0.27,-0.04,-0.19,1721743889267
0.93,1.12,6.11,0.26,0.0,-0.38,1721743889276
-1.58,1.36,5.1,0.18,-0.07,-0.29,1721743889285
0.89,2.21,5.43,0.18,0.08,-0.23,1721743889294
-0.11,-4.77,5.61,-0.02,-0.07,-0.17,1721743889303
1.23,-3.07,10.69,-0.05,0.29,-0.39,1721743889312
1.2,-6.57,10.85,-0.05,-0.02,-0.61,1721743889321
-4.78,-5.1,13.0,-0.01,0.13,-0.7,1721743889330
-4.69,-3.42,15.16,0.13,0.04,-0.54,1721743889339
-5.09,-0.19,8.28,0.1,-0.06,-0.12,1721743889348
-0.56,-1.4,8.01,-0.22,0.22,-0.08,1721743889357
0.36,-0.19,12.02,-0.1,-0.06,-0.23,1721743889366
0.93,-7.0,10.18,-0.11,0.07,-0.43,1721743889375
-5.1,1.22,12.36,-0.05,-0.03,-0.61,1721743889384
-6.48,1.59,10.04,0.09,-0.07,-0.29,1721743889394
-4.89,1.63,3.28,0.07,-0.07,0.23,1721743889403
1.39,-0.32,7.24,-0.13,0.2,0.4,1721743889412
2.75,3.96,9.51,0.05,0.01,0.04,1721743889421
3.57,2.09,12.47,0.02,-0.04,-0.24,1721743889430
-1.71,0.37,10.42,0.15,-0.17,-0.3,1721743889439
-0.49,3.67,9.38,0.08,0.09,-0.24,1721743889448
-3.04,7.5,13.46,0.02,-0.05,-0.12,1721743889457
-1.51,5.54,14.43,-0.05,-0.02,-0.05,1721743889466
-1.11,-0.42,10.66,-0.14,-0.05,-0.12,1721743889475
-1.23,0.32,17.42,-0.07,0.07,-0.2,1721743889484
-3.11,3.62,11.13,0.17,-0.36,-0.08,1721743889493
-1.78,-0.52,6.68,-0.12,0.06,0.01,1721743889502
-4.03,6.62,9.25,0.02,-0.11,0.04,1721743889511
-0.26,-2.48,4.63,-0.17,-0.01,0.24,1721743889520
-1.44,-4.6,6.9,-0.3,0.03,0.25,1721743889529
-0.06,-3.52,15.04,-0.3,0.16,0.1,1721743889538
-1.88,-2.13,13.5,-0.1,-0.27,-0.0,1721743889547
-1.98,-3.41,9.12,-0.07,-0.03,-0.01,1721743889556
-2.34,-3.47,6.73,-0.19,-0.24,0.16,1721743889565
-2.18,-1.89,13.97,-0.21,0.08,0.26,1721743889574
1.3,-2.31,13.86,-0.09,-0.27,0.26,1721743889583
1.78,-4.88,7.96,-0.15,-0.06,-0.01,1721743889592
-0.57,-2.12,12.33,-0.19,-0.2,-0.17,1721743889601
-1.81,3.63,13.28,-0.06,-0.03,-0.08,1721743889610
-2.38,-0.11,7.8,-0.14,-0.15,0.1,1721743889619
-0.02,0.88,6.9,-0.19,0.11,0.01,1721743889628
0.57,0.4,11.85,-0.18,-0.0,-0.09,1721743889637
-1.45,0.57,14.97,-0.19,-0.1,-0.04,1721743889646
-0.96,2.24,18.51,-0.09,0.01,0.02,1721743889655
-0.71,0.28,13.62,0.02,-0.2,0.26,1721743889664
2.52,5.12,12.83,0.09,0.14,0.48,1721743889673
7.75,4.16,9.87,0.12,0.08,0.51,1721743889682
8.81,4.62,10.26,0.19,0.27,-0.09,1721743889691
5.16,7.48,9.85,0.41,-0.13,-0.52,1721743889700
0.42,7.3,7.44,0.41,0.09,-0.61,1721743889709
-3.05,5.56,9.08,0.27,0.06,-0.23,1721743889718
-1.42,-1.31,12.26,0.08,0.25,0.03,1721743889727
0.26,2.78,13.11,0.19,0.11,0.17,1721743889736
3.18,2.29,4.83,0.13,0.08,0.01,1721743889745
4.84,0.86,7.39,-0.13,0.26,-0.18,1721743889754
2.96,-7.26,15.07,-0.07,0.04,-0.51,1721743889763
-2.86,-2.1,13.46,0.29,-0.05,-0.55,1721743889772
-3.91,-2.93,-0.57,0.13,-0.04,-0.32,1721743889781
-1.21,-1.55,4.9,-0.37,0.47,-0.09,1721743889790
0.88,-5.43,18.43,-0.13,0.27,-0.14,1721743889799
1.88,-5.38,12.14,0.26,-0.04,-0.41,1721743889808
0.09,-9.1,4.66,-0.05,0.12,-0.6,1721743889817
-5.33,-5.38,15.12,-0.13,0.08,-0.51,1721743889826
-3.51,-3.08,16.09,0.07,0.12,-0.25,1721743889835
-3.88,-2.79,9.85,0.1,-0.07,0.01,1721743889844
-0.74,-4.06,4.98,-0.17,0.07,-0.15,1721743889853
-0.75,-5.7,12.37,-0.24,0.06,-0.19,1721743889862
-1.24,-2.6,11.88,0.07,-0.09,-0.14,1721743889871
-2.72,0.55,3.01,0.11,-0.06,0.05,1721743889880
-0.94,5.17,12.31,-0.14,0.32,-0.01,1721743889889
-0.61,3.34,12.71,0.04,-0.26,0.18,1721743889898
3.09,-1.13,14.2,0.0,0.2,0.1,1721743889907
1.97,0.79,12.55,0.1,-0.26,-0.08,1721743889916
0.98,7.12,10.75,0.17,0.09,-0.35,1721743889925
-2.85,8.95,16.85,0.18,-0.13,-0.48,1721743889935
-5.22,4.62,11.17,0.37,-0.23,-0.12,1721743889944
-3.47,1.84,9.76,0.15,0.08,0.17,1721743889953
-1.4,4.58,13.71,0.14,-0.03,0.2,1721743889962
1.21,10.95,16.58,0.21,0.15,0.11,1721743889971
1.5,7.38,9.89,0.3,-0.2,0.01,1721743889980
0.72,-0.66,3.17,0.09,0.12,-0.19,1721743889989
-0.88,-5.47,7.8,-0.08,0.0,-0.04,1721743889998
-0.39,-3.9,9.22,-0.04,0.18,-0.0,1721743890007
0.83,-3.6,10.06,0.0,0.02,0.06,1721743890016
1.27,-1.32,6.45,0.02,0.1,-0.06,1721743890025
1.51,-7.42,7.73,-0.13,0.0,-0.1,1721743890034
0.09,-10.03,14.56,-0.17,0.02,-0.06,1721743890043
1.98,-2.6,18.9,0.08,0.14,0.01,1721743890052
1.41,-0.55,5.91,0.07,-0.2,-0.03,1721743890061
1.96,-4.23,7.34,-0.34,0.32,-0.17,1721743890070
-0.34,-9.36,16.89,-0.22,0.09,-0.3,1721743890079
-5.52,-5.44,10.7,0.08,-0.07,-0.26,1721743890088
-1.37,-3.9,4.24,0.1,0.22,-0.07,1721743890097
-3.91,0.31,2.42,-0.07,0.05,0.13,1721743890106
0.8,-1.42,7.34,-0.19,0.33,0.1,1721743890115
1.13,7.15,11.91,-0.14,0.18,-0.07,1721743890124
2.58,11.33,9.58,0.04,0.12,-0.24,1721743890133
3.13,-9.46,1.01,-0.32,-0.0,-0.22,1721743890142
1.12,-6.94,21.78,-0.55,0.65,-0.35,1721743890151
-2.6,18.11,36.59,0.24,-0.05,-0.19,1721743890160
-0.39,29.2,10.56,0.39,0.03,-0.04,1721743890169
3.33,-8.43,-2.55,-0.09,0.12,-0.06,1721743890178
-0.04,-0.43,17.78,-0.24,0.61,-0.28,1721743890187
-0.43,15.31,19.0,0.37,0.03,-0.29,1721743890196
-0.53,13.82,-0.73,-0.06,0.14,-0.13,1721743890205
-2.74,4.58,4.75,0.1,0.24,-0.19,1721743890214
-2.23,-3.34,0.39,0.26,-0.07,0.07,1721743890223
2.43,-12.2,4.39,-0.28,0.57,0.01,1721743890232
0.47,-0.3,25.47,0.05,0.29,-0.17,1721743890241
1.04,10.41,16.77,0.63,0.01,-0.44,1721743890250
-0.44,-1.48,-1.8,0.12,-0.07,-0.42,1721743890259
-1.29,-12.0,0.4,-0.36,0.42,-0.51,1721743890268
-2.29,-2.38,16.7,-0.12,0.31,-0.5,1721743890277
-2.24,1.8,8.13,0.17,0.06,-0.45,1721743890286
-5.12,-4.87,-0.62,-0.11,0.14,-0.54,1721743890295
-6.8,-12.38,14.21,-0.5,0.23,-0.46,1721743890304
-9.86,-4.73,28.0,0.08,0.14,-0.08,1721743890313
-2.98,9.41,6.31,0.65,-0.15,0.58,1721743890322
3.7,-13.23,-11.44,-0.6,0.3,0.37,1721743890331
-3.65,8.87,51.29,0.04,-0.3,-0.24,1721743890345
-1.58,12.09,38.28,0.96,-0.67,-0.21,1721743890349
-2.09,1.81,-31.98,0.27,-0.42,0.02,1721743890358
4.26,-4.59,-2.27,-1.15,1.51,-0.04,1721743890367
-11.34,11.66,43.04,0.18,-0.73,0.51,1721743890376
4.16,2.34,1.16,1.24,0.12,0.22,1721743890385
0.62,-8.94,-1.21,0.19,-0.26,-0.17,1721743890395
-2.42,-11.73,12.73,-0.3,0.05,0.05,1721743890404
0.15,3.17,28.12,0.05,0.29,0.19,1721743890413
-4.98,10.92,7.09,0.34,-0.48,-0.28,1721743890422
-5.51,-1.57,2.04,0.05,0.07,-0.3,1721743890431
-8.19,3.66,3.82,-0.02,0.04,0.67,1721743890440
-0.39,-7.07,7.89,-0.49,0.42,0.85,1721743890449
1.53,-0.45,27.96,-0.08,0.09,0.64,1721743890458
3.87,6.44,10.62,0.73,-0.42,0.47,1721743890467
3.73,-6.5,-16.38,-0.03,-0.17,0.06,1721743890476
2.55,-17.94,14.49,-1.08,0.51,-0.23,1721743890485
-0.78,2.3,38.9,0.1,-0.36,-0.03,1721743890494
-0.55,0.62,-0.12,0.69,-0.3,0.26,1721743890503
-1.35,-7.59,-11.58,-0.21,0.13,0.45,1721743890512
4.14,-4.49,17.08,-0.43,0.33,0.58,1721743890521
0.34,-0.08,17.79,0.29,-0.26,0.54,1721743890530
4.62,-5.62,-0.79,-0.17,0.11,0.22,1721743890539
0.78,-0.93,15.19,-0.3,0.13,0.04,1721743890548
-0.65,2.91,12.73,-0.01,-0.19,-0.01,1721743890557
-0.82,4.71,6.41,0.09,-0.09,0.13,1721743890566
-0.83,3.6,9.09,-0.12,0.0,0.36,1721743890575
2.39,1.83,13.82,-0.05,0.1,0.4,1721743890584
5.53,4.56,11.74,0.23,0.01,0.35,1721743890593
5.7,2.04,6.55,0.14,0.1,-0.0,1721743890602
2.84,3.68,14.17,0.07,0.12,-0.3,1721743890611
-0.22,7.43,17.81,0.32,-0.05,-0.22,1721743890620
-0.33,9.14,6.3,0.49,-0.07,0.07,1721743890629
1.77,4.92,4.7,0.17,0.24,0.18,1721743890638
0.62,-1.36,12.8,-0.11,0.14,0.05,1721743890647
-1.65,-1.96,13.83,0.09,0.05,-0.17,1721743890656
-1.41,1.91,7.6,0.18,0.05,-0.28,1721743890665
-2.97,2.95,6.34,0.07,0.03,-0.05,1721743890674
-2.23,1.13,11.74,0.08,0.13,-0.03,1721743890683
-1.38,-0.21,10.74,0.14,-0.08,0.04,1721743890692
1.51,-6.72,5.74,-0.07,0.03,0.01,1721743890701
2.8,-4.95,7.05,-0.02,0.08,-0.24,1721743890710
2.29,-5.11,11.37,0.13,0.01,-0.55,1721743890719
-2.97,-3.2,7.4,0.39,-0.12,-0.7,1721743890728
-7.21,-6.25,3.99,0.17,-0.12,-0.5,1721743890737
-8.05,-0.43,12.52,-0.05,0.11,-0.05,1721743890746
-3.94,4.56,20.37,0.02,-0.02,0.33,1721743890755
1.44,3.06,13.22,-0.07,-0.08,0.35,1721743890764
6.67,-3.85,7.9,-0.17,-0.02,-0.04,1721743890773
3.85,-6.78,5.09,-0.07,-0.23,-0.64,1721743890782
-1.42,-0.79,6.11,-0.0,-0.04,-0.81,1721743890791
-4.92,2.23,14.79,-0.09,-0.01,-0.25,1721743890800
-6.77,9.23,17.67,0.23,-0.09,0.18,1721743890809
0.14,8.04,7.45,0.08,-0.09,0.27,1721743890818
1.82,2.6,7.26,-0.21,-0.08,-0.12,1721743890827
0.94,5.58,17.69,-0.06,0.06,-0.39,1721743890836
-4.64,4.39,9.89,0.13,-0.41,-0.27,1721743890845
-4.16,5.36,5.89,0.08,0.11,0.0,1721743890854
-1.98,-2.59,7.07,-0.13,-0.09,0.53,1721743890863
1.77,4.71,8.33,-0.05,0.26,0.34,1721743890872
4.93,10.23,6.52,-0.03,-0.09,-0.01,1721743890881
2.04,-2.05,2.69,-0.45,-0.07,-0.38,1721743890890
-2.91,-9.59,14.06,-0.46,-0.03,-0.39,1721743890899
-3.68,-9.46,6.18,-0.09,-0.27,0.03,1721743890908
-0.39,-15.08,7.89,-0.49,0.25,0.24,1721743890917
-2.03,-3.45,35.95,-0.12,0.23,0.28,1721743890926
1.84,10.14,20.53,0.76,-0.27,0.19,1721743890936
3.99,-4.54,-4.42,0.1,-0.18,-0.11,1721743890945
-1.36,-3.7,4.85,-0.48,0.17,-0.39,1721743890954
-3.95,-8.73,15.8,-0.27,-0.11,-0.23,1721743890963
-3.45,-8.67,11.74,-0.13,0.09,0.06,1721743890972
-2.06,0.63,9.42,-0.04,0.09,0.4,1721743890981
4.09,3.73,7.55,-0.15,0.23,0.4,1721743890990
2.06,6.49,14.39,-0.14,0.08,0.15,1721743890999
3.11,10.36,14.42,0.03,0.05,-0.12,1721743891008
4.36,-1.26,11.22,-0.05,0.01,-0.28,1721743891017
1.44,3.48,11.75,0.25,0.13,-0.26,1721743891026
3.38,0.91,7.68,0.23,0.18,-0.2,1721743891035
-0.74,5.18,13.72,0.2,0.13,-0.27,1721743891044
0.32,8.42,15.57,0.48,0.1,-0.19,1721743891053
-0.29,4.65,5.84,0.37,0.06,-0.03,1721743891062
1.77,4.24,8.2,0.21,0.42,0.03,1721743891071
1.8,3.11,9.79,0.16,0.17,-0.09,1721743891080
-0.0,2.64,9.44,0.11,0.18,-0.36,1721743891089
-0.39,-2.81,11.83,0.02,0.09,-0.33,1721743891098
-2.5,-3.15,9.84,0.07,0.09,-0.08,1721743891107
0.9,0.29,8.15,0.0,0.3,0.03,1721743891116
0.95,-2.11,7.69,-0.12,0.14,-0.19,1721743891125
0.44,-1.82,10.61,-0.09,0.18,-0.5,1721743891134
-0.68,-3.71,7.67,-0.08,0.06,-0.65,1721743891143
-3.52,-5.8,7.02,-0.13,0.12,-0.54,1721743891152
-5.06,-7.27,10.79,-0.11,0.2,-0.41,1721743891161
-3.83,-6.0,16.19,-0.13,0.11,-0.23,1721743891170
-4.72,-0.53,19.07,0.13,0.04,-0.26,1721743891179
-3.92,0.54,5.72,0.22,-0.24,-0.2,1721743891188
-2.4,-1.65,-1.52,-0.1,0.11,-0.15,1721743891197
-2.07,-4.66,7.17,-0.34,0.17,-0.07,1721743891206
-3.02,3.26,16.4,-0.01,0.05,-0.13,1721743891215
-1.52,1.88,12.89,0.17,-0.06,-0.12,1721743891224
-1.56,0.67,7.52,0.09,-0.03,0.02,1721743891233
0.55,-0.69,10.07,0.02,0.2,0.13,1721743891242
1.72,4.58,16.09,-0.0,0.1,-0.0,1721743891251
0.71,12.41,17.04,0.19,0.1,-0.12,1721743891260
0.76,10.06,8.6,0.13,-0.11,-0.11,1721743891269
-1.92,-0.41,7.39,-0.17,-0.04,-0.17,1721743891278
-3.16,-1.32,17.02,-0.16,0.12,-0.28,1721743891287
-3.58,1.77,14.43,0.04,-0.27,0.05,1721743891296
-1.57,6.05,9.84,0.04,0.22,0.24,1721743891305
1.27,1.31,5.97,0.07,-0.14,0.32,1721743891314
1.06,-3.89,5.21,0.01,0.18,0.13,1721743891323
-0.14,-4.32,9.11,-0.07,0.11,0.05,1721743891332
-2.28,-3.11,10.02,-0.16,0.06,0.07,1721743891341
-3.51,-3.21,15.22,-0.09,0.02,0.14,1721743891350
-0.99,-3.56,14.23,0.1,-0.12,0.45,1721743891359
4.13,-1.69,9.03,0.03,0.14,0.56,1721743891368
3.3,-3.67,8.15,-0.14,0.02,0.22,1721743891377
2.23,0.41,10.85,-0.1,0.08,-0.1,1721743891387
-0.78,1.73,8.03,-0.09,0.03,-0.19,1721743891396
-3.6,-2.64,4.64,-0.14,-0.04,-0.02,1721743891405
-4.53,-4.39,9.65,-0.21,0.14,0.28,1721743891414
-1.5,-4.82,15.02,-0.14,0.03,0.55,1721743891423
4.28,4.18,11.79,0.04,0.03,0.61,1721743891432
8.35,6.39,8.71,0.08,0.08,0.35,1721743891441
6.59,7.8,10.47,0.07,0.06,-0.07,1721743891450
4.48,10.71,12.47,0.14,0.14,-0.33,1721743891459
-0.28,1.87,8.7,0.03,-0.12,-0.3,1721743891468
-2.76,2.04,8.58,0.11,0.18,-0.26,1721743891477
-3.93,-0.2,7.49,0.11,-0.0,0.06,1721743891486
-3.44,-2.15,13.92,-0.18,0.26,0.32,1721743891495
-0.89,3.94,21.65,0.13,0.15,0.3,1721743891504
2.03,3.56,5.74,0.36,-0.15,0.22,1721743891513
3.81,1.47,1.99,-0.18,0.2,-0.03,1721743891522
0.97,3.83,14.92,-0.14,0.08,-0.29,1721743891531
-0.46,-4.4,11.64,0.01,-0.16,-0.39,1721743891540
-2.91,-7.73,9.42,-0.06,0.04,-0.28,1721743891549
-4.3,-4.31,13.45,0.03,-0.01,-0.25,1721743891558
-4.66,-2.96,12.0,0.06,-0.21,-0.02,1721743891567
-1.55,-3.69,8.71,0.07,-0.11,0.07,1721743891576
-0.58,-1.98,4.19,-0.05,-0.05,-0.14,1721743891585
-0.96,1.58,13.16,-0.13,0.03,-0.26,1721743891594
-2.52,1.09,8.24,0.2,-0.31,-0.05,1721743891603
1.29,-0.75,3.51,-0.12,0.26,-0.11,1721743891612
-1.14,-4.68,18.9,-0.2,-0.02,-0.27,1721743891621
-3.84,1.95,16.57,0.33,-0.24,0.01,1721743891630
1.92,-1.52,6.33,-0.05,0.2,0.28,1721743891639
2.24,1.55,18.4,-0.11,0.23,0.06,1721743891648
3.3,8.73,16.53,0.44,-0.04,-0.11,1721743891657
4.99,4.62,-0.75,0.24,0.05,-0.2,1721743891666
2.28,1.12,7.67,-0.18,0.3,-0.47,1721743891675
0.45,5.49,18.25,0.21,-0.03,-0.57,1721743891684
0.99,-2.23,12.01,0.15,0.01,-0.41,1721743891693
-1.75,11.42,18.12,0.27,0.17,-0.31,1721743891702
1.07,8.93,3.38,0.32,-0.04,-0.08,1721743891711
1.68,0.87,0.08,-0.05,0.47,-0.35,1721743891720
-1.51,-0.11,12.29,0.1,0.21,-0.48,1721743891730
-4.35,-4.81,5.94,0.05,0.05,-0.37,1721743891739
-4.93,-2.68,6.21,-0.11,0.31,-0.07,1721743891748
-3.09,2.13,9.87,0.04,0.15,0.14,1721743891757
1.17,-1.1,4.47,0.04,0.08,0.12,1721743891766
2.41,0.64,10.41,-0.16,0.3,-0.03,1721743891775
3.34,-2.37,13.75,-0.13,0.12,-0.25,1721743891784
2.27,-1.81,12.0,-0.08,0.24,-0.46,1721743891793
-0.85,-0.38,12.87,-0.14,0.23,-0.45,1721743891802
-5.04,1.37,9.76,-0.04,0.25,-0.37,1721743891811
-4.94,-3.2,7.47,-0.15,0.24,-0.24,1721743891820
-5.93,0.31,9.74,-0.19,0.29,0.07,1721743891829
-2.24,0.52,12.23,-0.03,0.35,0.23,1721743891838
-0.25,1.36,5.78,-0.12,0.12,0.2,1721743891847
1.8,4.47,6.86,-0.24,0.39,-0.03,1721743891856
0.81,-4.92,9.79,-0.38,0.09,-0.1,1721743891865
-1.86,-4.59,13.17,-0.34,0.29,-0.13,1721743891874
-0.51,3.24,18.45,-0.08,0.27,0.03,1721743891883
-0.21,3.65,10.14,-0.01,0.05,0.15,1721743891892
2.8,-0.36,11.05,-0.16,0.39,0.08,1721743891901
0.84,1.98,14.13,-0.05,0.14,-0.14,1721743891910
-0.05,0.1,7.3,0.05,0.14,-0.28,1721743891919
-2.38,-1.71,10.0,-0.01,0.28,-0.25,1721743891928
-4.47,5.68,14.71,0.13,0.16,0.01,1721743891938
-2.76,6.25,7.66,0.31,0.15,0.17,1721743891947
-1.38,-2.77,5.2,0.08,0.24,0.24,1721743891956
-1.13,3.66,14.55,-0.02,0.33,0.22,1721743891965
-0.05,8.86,15.61,0.24,0.12,0.25,1721743891974
0.79,-3.41,5.93,0.06,0.12,0.08,1721743891983
-2.46,-4.08,11.85,-0.07,0.22,-0.02,1721743891992
-3.26,4.9,14.08,0.13,0.07,0.21,1721743892001
-0.9,-0.42,11.28,-0.03,0.08,0.46,1721743892010
-0.22,-0.57,16.46,0.06,0.14,0.31,1721743892019
1.91,5.33,9.88,0.32,-0.05,0.23,1721743892028
1.37,5.9,1.71,0.22,0.09,0.1,1721743892037
-0.71,-2.15,5.45,0.01,0.03,0.04,1721743892046
-3.37,-2.08,9.21,0.05,0.08,0.11,1721743892055
-3.23,-1.53,8.81,0.05,0.05,0.32,1721743892064
-3.62,3.27,4.05,0.05,-0.06,0.44,1721743892073
1.11,-1.9,5.54,-0.21,0.12,0.48,1721743892082
1.13,-1.46,14.77,-0.2,-0.02,0.45,1721743892091
1.74,1.34,9.64,-0.0,-0.13,0.35,1721743892100
3.48,-5.68,5.76,-0.29,-0.01,0.13,1721743892109
-1.75,0.14,12.84,-0.1,-0.04,0.09,1721743892118
-1.38,1.59,8.96,-0.04,-0.12,0.32,1721743892127
-0.16,-6.43,12.28,-0.42,0.07,0.37,1721743892136
-1.27,-0.4,20.11,-0.12,-0.09,0.4,1721743892145
1.83,2.43,8.65,-0.01,-0.2,0.42,1721743892154
1.27,4.13,9.05,-0.38,0.09,0.3,1721743892163
0.48,0.2,15.08,-0.21,-0.17,0.2,1721743892172
-0.41,-2.86,6.73,-0.11,-0.21,0.25,1721743892181
0.58,0.55,6.68,-0.16,0.03,0.35,1721743892190
-0.28,5.0,9.97,-0.03,-0.18,0.4,1721743892199
0.58,2.5,11.57,-0.13,-0.08,0.34,1721743892208
-0.38,6.68,17.89,-0.1,-0.1,0.28,1721743892217
-0.7,0.26,8.11,-0.06,-0.39,0.29,1721743892226
2.1,-3.43,8.81,-0.34,0.1,0.26,1721743892235
-1.08,6.19,18.69,-0.09,-0.26,0.25,1721743892244
0.24,5.45,11.52,0.14,-0.27,0.31,1721743892253
3.03,-3.19,6.43,0.04,-0.19,0.39,1721743892262
1.01,-0.58,8.84,0.2,-0.15,0.28,1721743892271
3.02,4.12,6.67,0.25,-0.19,0.07,1721743892280
-0.23,3.47,9.22,-0.04,-0.13,-0.06,1721743892289
-2.5,6.21,16.14,0.05,-0.26,0.03,1721743892298
-0.97,2.14,7.5,0.03,-0.28,0.21,1721743892307
-0.39,-3.3,3.18,-0.2,-0.12,0.18,1721743892316
0.02,-4.61,12.03,-0.29,-0.16,0.2,1721743892325
-0.82,2.02,16.86,-0.08,-0.23,0.11,1721743892334
-0.7,3.29,5.36,0.11,-0.23,0.21,1721743892348
-0.36,-2.74,3.32,-0.06,-0.33,0.2,1721743892352
1.01,0.55,10.8,-0.11,0.02,0.16,1721743892361
0.07,0.31,13.38,0.06,-0.42,0.21,1721743892370
1.51,3.6,11.53,0.04,-0.12,0.17,1721743892379
2.64,3.89,11.85,0.05,-0.26,0.08,1721743892389
0.42,-1.0,2.65,0.1,-0.39,0.1,1721743892398
1.38,-3.17,6.44,-0.08,0.05,0.02,1721743892407
-1.43,5.94,20.71,0.03,-0.27,0.13,1721743892416
-0.46,12.06,14.69,0.42,-0.31,0.27,1721743892425
3.89,-10.63,-1.51,-0.03,-0.35,0.29,1721743892434
1.91,-2.77,10.01,-0.32,0.05,0.02,1721743892443
0.21,8.19,16.69,0.11,-0.42,-0.05,1721743892452
-1.52,-2.49,7.0,-0.06,-0.31,0.0,1721743892461
-0.97,-1.85,18.61,0.06,-0.11,0.11,1721743892470
-2.77,1.93,11.14,0.2,-0.53,0.28,1721743892479
1.51,3.9,9.15,0.06,-0.06,0.24,1721743892488
2.18,0.05,15.91,0.05,-0.31,0.12,1721743892497
-0.49,2.11,10.31,0.29,-0.44,-0.04,1721743892506
3.53,3.38,3.84,0.32,-0.13,-0.21,1721743892515
-1.14,0.18,7.07,0.29,-0.46,-0.02,1721743892524
1.79,4.84,12.6,0.43,-0.05,-0.04,1721743892533
0.74,2.38,-1.6,0.42,-0.5,-0.15,1721743892542
0.94,-5.51,3.51,-0.12,0.08,-0.29,1721743892551
-4.42,14.86,31.68,0.1,-0.12,-0.21,1721743892560
-1.68,11.26,7.18,0.63,-0.65,0.14,1721743892569
2.63,-17.02,-9.36,-0.19,-0.08,0.07,1721743892578
-0.19,-8.6,18.18,-0.58,0.21,-0.32,1721743892587
0.38,1.68,26.21,0.28,-0.55,-0.41,1721743892596
-0.76,0.15,-1.28,0.42,-0.35,-0.12,1721743892605
2.86,-4.5,4.06,-0.34,0.11,-0.08,1721743892614
-1.74,3.09,18.5,-0.05,-0.17,-0.2,1721743892623
-0.46,3.8,6.76,0.28,-0.31,-0.22,1721743892632
0.84,-2.31,4.32,-0.18,-0.09,-0.12,1721743892641
-0.59,3.37,15.42,-0.09,-0.03,-0.22,1721743892650
0.5,2.52,11.47,0.23,-0.31,-0.36,1721743892659
0.24,-2.53,4.34,0.02,-0.15,-0.35,1721743892668
-1.86,0.95,8.12,-0.0,-0.07,-0.23,1721743892677
1.28,-4.48,3.74,-0.09,-0.17,-0.15,1721743892686
-0.41,1.09,16.12,-0.19,0.18,-0.26,1721743892695
0.04,7.23,19.82,0.14,-0.22,-0.17,1721743892704
1.35,9.96,-0.88,0.39,-0.19,-0.17,1721743892713
4.72,-12.62,-2.6,-0.58,0.12,-0.25,1721743892722
-4.81,-6.57,37.48,-0.61,0.32,-0.81,1721743892731
-3.9,5.86,31.72,0.65,-0.59,-0.68,1721743892740
-1.97,-3.68,-11.08,0.28,-0.42,-0.08,1721743892749
0.08,-6.98,1.06,-0.83,0.59,0.1,1721743892758
0.68,17.29,28.84,0.03,-0.06,-0.11,1721743892767
3.53,6.82,0.71,0.62,-0.27,-0.22,1721743892776
3.41,-3.18,-0.36,-0.1,0.35,-0.5,1721743892785
-2.89,-0.46,20.41,-0.05,-0.09,-0.81,1721743892794
-4.53,-1.33,11.78,0.29,-0.22,-0.63,1721743892803
-3.67,-3.78,1.84,-0.07,0.04,-0.2,1721743892812
-2.68,-1.87,11.03,-0.43,0.24,-0.04,1721743892821
-1.69,7.12,18.85,-0.04,0.01,-0.08,1721743892830
2.57,-0.27,9.91,-0.0,-0.11,-0.1,1721743892839
1.24,-2.33,4.94,-0.08,0.07,-0.34,1721743892848
0.15,-2.21,9.15,-0.11,0.07,-0.45,1721743892857
-1.35,-1.69,14.35,-0.04,-0.04,-0.29,1721743892866
-2.36,4.26,17.43,0.08,0.12,-0.2,1721743892875
-2.32,7.08,12.99,0.14,-0.1,-0.11,1721743892884
0.63,2.05,10.97,-0.17,0.13,-0.21,1721743892893
-0.46,-6.31,14.61,-0.24,-0.02,-0.2,1721743892902
1.25,-3.25,11.93,0.1,0.11,-0.28,1721743892911
0.16,1.87,1.22,0.22,-0.06,-0.4,1721743892920
-0.89,4.37,1.08,0.06,0.19,-0.39,1721743892929
-2.25,1.28,14.23,0.03,0.2,-0.17,1721743892939
-4.08,0.79,12.04,0.25,-0.11,-0.02,1721743892948
-0.15,-2.54,9.72,-0.02,0.22,-0.04,1721743892957
-1.2,1.94,14.89,0.07,-0.05,0.2,1721743892966
3.9,3.6,9.38,0.29,0.15,0.02,1721743892975
2.91,0.82,7.73,0.09,0.03,-0.39,1721743892984
-0.69,0.26,13.42,0.09,0.05,-0.56,1721743892993
-2.07,0.32,15.26,0.23,0.01,-0.31,1721743893002
-2.32,8.24,15.04,0.21,0.17,-0.1,1721743893011
0.23,16.66,5.36,0.33,0.02,0.16,1721743893020
4.2,-13.06,-1.65,-0.21,0.16,-0.01,1721743893029
2.93,-12.14,14.92,-0.1,0.28,-0.37,1721743893038
1.04,-5.47,16.76,0.35,-0.04,-0.6,1721743893047
-1.9,-0.65,10.96,0.2,0.08,-0.48,1721743893056
-3.31,12.18,17.94,0.29,0.2,-0.26,1721743893065
-2.83,15.39,6.12,0.61,-0.08,-0.09,1721743893074
0.46,-3.88,-4.4,0.14,0.28,-0.06,1721743893083
-0.84,-1.18,7.47,-0.04,0.39,-0.1,1721743893092
2.16,-1.21,7.6,0.1,0.12,-0.2,1721743893101
1.92,4.79,13.17,0.03,0.33,-0.42,1721743893110
-1.12,6.57,8.8,0.25,-0.16,-0.44,1721743893119
-1.3,-5.13,-1.68,-0.21,0.17,-0.32,1721743893128
-2.97,-5.18,10.55,-0.47,0.28,-0.17,1721743893137
-2.12,0.34,13.13,-0.18,0.12,-0.02,1721743893146
0.68,2.15,11.39,-0.27,0.36,-0.13,1721743893155
-1.75,3.13,11.09,-0.07,-0.08,-0.22,1721743893164
-0.09,-10.4,2.01,-0.38,0.13,-0.34,1721743893173
-3.15,-13.07,21.77,-0.81,0.38,-0.22,1721743893182
-6.15,9.11,42.6,0.23,0.06,-0.05,1721743893191
0.47,12.93,6.96,0.81,-0.19,0.02,1721743893200
1.55,6.6,-14.84,0.02,0.25,-0.08,1721743893209
1.41,-6.74,-0.95,-0.48,0.36,-0.22,1721743893218
-3.09,-8.72,0.87,-0.19,-0.19,-0.21,1721743893227
-0.35,-9.88,15.89,-0.67,0.72,-0.22,1721743893236
-5.18,10.12,26.84,0.21,-0.22,-0.1,1721743893245
-2.75,5.34,-3.65,0.11,-0.1,0.06,1721743893255
-3.35,4.12,22.12,-0.62,0.54,0.12,1721743893265
-0.88,-4.03,20.95,-0.24,-0.21,0.24,1721743893274
3.36,-1.89,16.0,-0.07,0.34,0.04,1721743893283
2.49,7.68,10.1,0.24,-0.09,0.03,1721743893292
3.38,4.6,2.16,-0.02,0.14,-0.23,1721743893301
-1.41,4.22,12.2,-0.12,0.19,-0.38,1721743893310
-2.1,-3.01,12.12,-0.02,-0.06,-0.16,1721743893319
-3.39,-2.12,18.76,-0.11,0.29,0.09,1721743893328
-2.4,8.88,14.87,0.24,-0.09,0.3,1721743893337
1.55,6.04,-2.07,0.2,0.11,0.26,1721743893346
3.52,-4.5,8.27,-0.24,0.34,-0.11,1721743893355
-2.26,7.44,19.66,0.37,-0.04,-0.21,1721743893364
0.53,0.96,1.96,0.38,-0.08,-0.04,1721743893373
-0.42,4.37,11.12,-0.1,0.47,-0.12,1721743893382
-1.65,-1.65,9.51,0.39,-0.32,0.1,1721743893392
2.22,-0.89,3.16,0.16,0.44,-0.05,1721743893401
0.08,14.83,15.55,0.33,0.14,-0.04,1721743893410
0.73,4.88,-1.04,0.28,0.0,-0.15,1721743893419
-0.2,-6.04,7.12,-0.43,0.47,-0.48,1721743893428
-7.21,3.56,21.76,0.2,-0.25,-0.28,1721743893437
1.49,-11.37,5.61,-0.17,0.08,0.26,1721743893446
0.31,1.46,20.55,-0.04,0.48,0.19,1721743893455
4.54,4.66,4.39,0.5,-0.34,-0.13,1721743893464
3.58,-13.17,-5.87,-0.31,0.35,-0.72,1721743893473
-2.48,-1.44,31.67,-0.18,0.24,-0.76,1721743893482
-7.8,11.27,17.09,0.92,-0.31,-0.16,1721743893491
-3.99,-1.2,-7.78,-0.41,0.33,0.2,1721743893500
-9.81,-5.19,28.15,-0.72,0.65,0.4,1721743893509
1.94,-3.72,10.35,0.17,-0.18,0.34,1721743893518
10.41,-16.67,-2.37,-0.21,0.56,-0.12,1721743893527
0.21,10.17,25.15,0.06,0.12,-0.52,1721743893536
-1.71,4.09,4.04,0.52,-0.4,-0.52,1721743893545
-2.37,-9.29,5.88,-0.44,0.38,-0.3,1721743893554
-6.84,9.05,17.74,-0.05,0.05,0.21,1721743893563
2.55,-4.33,-10.37,-0.52,0.09,0.4,1721743893572
5.02,-14.81,25.21,-1.17,0.91,-0.07,1721743893581
-4.81,12.76,42.09,0.73,-0.5,-0.14,1721743893590
1.99,-1.84,-12.18,0.3,-0.22,-0.15,1721743893599
-5.43,2.24,14.83,-0.65,0.72,-0.11,1721743893608
-5.42,13.05,24.62,0.26,-0.44,0.24,1721743893617
2.29,2.5,-3.88,-0.1,0.14,0.23,1721743893626
0.84,4.5,10.01,-0.3,0.38,0.02,1721743893635
1.3,11.3,3.12,0.18,-0.19,-0.03,1721743893644
4.38,-5.65,0.43,-0.41,0.37,-0.3,1721743893653
-6.54,-0.69,27.75,-0.01,0.01,-0.35,1721743893662
-3.92,0.51,20.49,0.4,-0.14,0.01,1721743893671
-1.13,-4.19,7.92,-0.14,0.14,0.31,1721743893680
-0.4,5.7,13.43,0.06,0.24,0.31,1721743893689
3.38,0.59,-3.1,0.02,-0.08,0.22,1721743893698
5.91,-2.68,8.73,-0.52,0.65,-0.03,1721743893707
-0.67,13.64,25.07,0.44,-0.17,-0.26,1721743893716
-0.99,-5.42,-1.31,0.21,-0.23,-0.23,1721743893725
-5.06,-2.52,24.66,-0.63,0.75,-0.21,1721743893735
-5.15,18.1,23.09,0.83,-0.5,0.34,1721743893745
1.12,-4.46,-15.96,0.05,0.27,0.46,1721743893754
4.38,0.52,9.42,-0.39,0.81,-0.04,1721743893763
2.56,10.71,8.7,0.62,-0.31,-0.33,1721743893772
1.16,-10.11,-9.44,0.03,0.26,-0.58,1721743893781
-9.25,-2.93,23.09,-0.18,0.45,-0.45,1721743893790
-5.02,12.83,22.76,0.84,-0.31,0.11,1721743893799
-0.59,-4.97,-8.78,-0.14,0.06,0.41,1721743893808
5.27,-1.48,17.18,-0.48,0.72,0.33,1721743893817
3.05,5.94,15.75,0.42,-0.25,0.15,1721743893826
4.24,4.56,-2.08,0.06,0.31,-0.25,1721743893835
-2.32,0.09,23.08,0.07,0.09,-0.46,1721743893845
-5.47,0.37,3.76,0.54,-0.41,0.21,1721743893854
2.55,-3.02,-4.06,-0.24,0.68,0.4,1721743893863
-0.15,-1.64,21.72,0.0,-0.07,0.37,1721743893872
4.66,4.31,15.39,0.3,0.07,0.01,1721743893881
1.87,-2.33,13.16,-0.01,-0.05,-0.25,1721743893890
-2.77,-2.52,8.77,0.13,-0.03,-0.35,1721743893899
-2.69,-3.54,1.96,-0.07,0.01,-0.09,1721743893908
-3.93,4.22,18.72,-0.15,0.42,0.09,1721743893917
-1.71,4.61,9.64,0.32,-0.2,0.21,1721743893926
1.64,1.56,5.03,-0.07,0.3,0.08,1721743893936
-2.27,3.28,18.24,-0.13,0.04,0.07,1721743893945
-0.14,1.2,8.83,0.18,-0.06,0.07,1721743893954
0.98,-7.93,1.15,-0.4,0.04,0.07,1721743893963
-1.91,-4.96,20.22,-0.45,0.32,0.16,1721743893972
2.22,1.52,12.19,0.21,-0.16,0.0,1721743893981
-0.57,-2.54,1.41,-0.16,-0.0,-0.05,1721743893990
-3.17,4.42,13.48,-0.24,0.2,-0.02,1721743893999
-0.53,5.94,8.27,0.1,-0.07,0.06,1721743894008
-1.76,-0.61,2.61,-0.28,-0.03,0.13,1721743894017
-1.58,-2.83,10.07,-0.44,0.18,0.07,1721743894026
-1.22,1.42,15.2,-0.09,0.06,-0.09,1721743894035
-2.69,-2.88,8.86,-0.04,-0.24,0.13,1721743894044
-2.43,-6.46,14.6,-0.32,0.2,0.22,1721743894053
-2.07,4.38,13.82,0.15,-0.17,0.29,1721743894062
2.63,-0.03,3.51,0.02,-0.11,0.3,1721743894071
2.4,0.98,2.9,-0.11,-0.05,0.42,1721743894080
6.77,0.11,14.85,-0.33,0.33,-0.29,1721743894089
-4.36,15.81,22.75,0.34,-0.64,-0.34,1721743894098
0.18,1.69,-2.06,0.11,-0.19,0.09,1721743894107
-1.67,-4.47,3.22,-0.88,0.25,0.07,1721743894116
-4.43,-9.19,23.95,-0.27,-0.18,0.09,1721743894125
-0.73,-7.53,12.42,0.26,-0.26,0.3,1721743894134
1.11,8.86,10.59,0.23,0.04,0.1,1721743894143
-2.13,39.64,19.6,0.44,-0.12,0.09,1721743894152
-0.05,36.09,12.8,0.17,-0.07,0.28,1721743894161
4.17,-26.19,-5.87,-1.09,-0.11,0.14,1721743894170
2.61,-32.45,15.73,-0.56,0.58,-0.14,1721743894179
-11.52,6.12,15.76,0.95,-1.04,-0.04,1721743894188
0.88,4.44,-16.85,0.44,0.13,0.12,1721743894197
0.54,4.47,10.69,-0.92,0.37,0.4,1721743894206
2.2,-0.07,25.42,0.07,0.02,0.59,1721743894215
3.31,-5.02,7.52,-0.21,-0.12,0.15,1721743894224
4.72,4.55,18.63,-0.14,0.26,-0.25,1721743894233
0.42,0.37,7.07,0.29,-0.59,-0.32,1721743894242
-2.38,2.41,-9.15,0.08,-0.09,-0.2,1721743894251
1.7,-2.67,0.87,-0.34,0.19,0.21,1721743894260
0.15,0.98,20.86,-0.17,0.28,0.13,1721743894269
-0.41,-4.62,24.12,-0.1,-0.29,-0.54,1721743894278
-3.98,-6.84,24.47,0.1,-0.24,-0.39,1721743894287
-6.18,4.41,7.77,0.48,-0.24,0.05,1721743894296
0.13,17.57,-15.22,0.3,0.02,0.5,1721743894305
6.17,18.37,-32.29,-0.45,0.11,0.54,1721743894314
14.05,-46.02,-3.19,-2.37,0.79,0.21,1721743894323
-14.26,-25.8,78.45,-1.11,-0.2,-2.04,1721743894332
-12.61,25.15,78.45,2.92,-1.96,-1.04,1721743894341
-11.3,-18.56,-57.01,1.82,-0.78,0.67,1721743894355
6.8,6.68,-40.32,0.8,1.29,1.02,1721743894359
-0.11,-24.52,-5.1,-2.16,-0.78,1.13,1721743894368
10.95,20.2,42.21,0.22,0.43,-0.04,1721743894377
4.95,-1.98,-16.5,-0.12,1.35,-0.03,1721743894387
3.77,5.79,13.36,-0.04,-0.31,-0.67,1721743894396
-6.24,13.59,12.09,0.23,-0.43,-0.65,1721743894405
-5.6,1.23,4.07,0.25,0.29,-0.26,1721743894414
-7.91,-1.79,1.64,-0.06,-0.18,0.42,1721743894423
4.3,-10.3,-2.5,-0.2,0.27,0.3,1721743894432
6.16,-1.63,13.49,-0.53,0.33,-0.19,1721743894441
-2.05,5.93,31.44,0.18,-0.19,-0.68,1721743894450
-3.51,-0.53,3.5,0.71,-0.44,-0.56,1721743894459
-6.41,-0.18,-6.29,0.48,0.27,-0.18,1721743894468
-2.89,0.4,-2.56,0.05,0.04,0.15,1721743894477
-1.83,-3.44,27.38,-0.3,0.44,0.1,1721743894486
-2.94,8.96,38.09,0.58,0.07,0.06,1721743894495
4.94,13.12,6.5,0.48,-0.13,0.14,1721743894504
4.19,0.22,-17.05,-0.34,0.19,-0.17,1721743894513
0.85,-7.74,12.99,-0.28,0.37,-0.42,1721743894522
-2.98,3.38,11.94,0.65,-0.4,-0.32,1721743894531
1.41,-0.91,-12.11,0.3,0.23,-0.23,1721743894540
-8.6,-3.45,6.71,-0.29,0.3,-0.26,1721743894549
-5.88,1.58,29.92,0.12,0.15,-0.3,1721743894558
-5.76,2.19,14.13,0.28,-0.24,0.11,1721743894567
0.26,-2.87,7.07,-0.01,0.21,0.51,1721743894576
4.71,-3.86,9.24,-0.18,0.25,0.48,1721743894585
6.01,1.76,18.0,0.2,0.23,-0.25,1721743894594
3.19,2.64,7.76,0.51,-0.31,-0.5,1721743894603
-2.18,13.73,6.79,0.27,0.32,-0.5,1721743894612
-5.13,7.21,9.16,0.18,-0.19,-0.23,1721743894621
-6.06,-1.96,6.79,0.12,0.15,-0.03,1721743894630
