AccX,AccY,AccZ,GyrX,GyrY,GyrZ,Time
-3.0,5.64,12.24,0.39,0.14,-0.21,1721207223664
-1.76,0.4,3.8,0.22,0.13,-0.04,1721207223669
-1.24,2.53,4.46,0.1,0.36,-0.09,1721207223678
2.17,-4.67,9.25,-0.04,0.28,-0.14,1721207223688
-0.23,-4.86,15.39,-0.03,0.21,-0.29,1721207223697
-2.17,6.91,8.82,0.39,0.2,-0.26,1721207223707
0.01,3.62,1.07,-0.03,0.34,-0.1,1721207223716
-1.21,-4.16,12.85,-0.17,0.22,-0.11,1721207223726
-0.91,-1.73,9.8,0.24,0.1,-0.09,1721207223735
0.78,-6.11,8.4,-0.29,0.57,-0.26,1721207223745
-2.22,-0.2,19.68,-0.01,0.12,-0.18,1721207223754
-0.95,2.34,7.47,0.19,0.19,-0.01,1721207223764
-1.01,3.07,4.37,-0.04,0.22,0.06,1721207223773
-0.57,-1.26,6.88,-0.16,0.24,-0.23,1721207223783
-2.18,-6.39,12.42,-0.22,0.32,-0.15,1721207223793
-2.14,-4.01,17.05,-0.1,0.26,0.11,1721207223803
-0.38,5.24,5.95,0.11,0.08,0.24,1721207223812
2.38,0.99,10.08,-0.21,0.35,0.09,1721207223822
0.19,-0.48,17.48,-0.12,0.08,-0.04,1721207223831
-2.12,1.7,10.99,0.08,0.14,-0.11,1721207223841
-1.73,2.71,7.99,-0.03,0.16,0.01,1721207223850
-4.34,-0.43,2.41,-0.09,-0.02,0.12,1721207223860
-2.87,-1.55,11.52,-0.15,0.39,0.14,1721207223870
-0.11,4.13,14.14,0.15,-0.01,0.35,1721207223880
1.47,0.74,8.06,-0.03,0.05,0.3,1721207223890
1.72,0.76,16.35,-0.11,0.18,0.08,1721207223900
-1.54,3.51,2.82,0.07,-0.32,-0.01,1721207223910
-3.3,-2.55,8.03,-0.2,0.38,-0.01,1721207223920
-0.68,-1.91,21.68,0.07,0.09,0.29,1721207223930
-0.67,2.69,6.07,0.17,-0.24,0.42,1721207223940
0.62,4.88,6.35,0.08,0.19,0.25,1721207223950
2.54,2.56,9.42,0.05,0.01,0.03,1721207223960
-0.83,-2.16,12.66,-0.11,-0.12,0.07,1721207223970
-3.44,2.55,12.99,0.14,-0.14,0.29,1721207223980
0.56,2.78,8.18,-0.01,0.03,0.45,1721207223990
1.38,-0.14,11.15,-0.1,-0.15,0.33,1721207224000
0.74,0.03,9.88,-0.01,-0.11,0.11,1721207224010
-0.97,4.34,6.49,0.11,-0.17,0.11,1721207224020
-1.98,-1.86,6.72,-0.11,-0.15,0.19,1721207224030
-0.86,-1.48,16.35,0.0,0.04,0.27,1721207224040
0.55,1.36,11.34,0.12,-0.2,0.29,1721207224050
0.94,4.11,8.05,-0.01,-0.15,0.32,1721207224060
2.32,2.51,11.87,0.04,-0.08,0.22,1721207224070
1.41,1.65,8.31,0.1,-0.25,0.04,1721207224080
-2.16,-1.02,5.96,-0.05,-0.24,0.0,1721207224090
-2.91,-1.94,10.73,-0.1,-0.13,0.18,1721207224100
-2.07,-0.65,10.68,-0.03,-0.15,0.3,1721207224110
0.04,-1.06,8.51,0.03,-0.26,0.41,1721207224120
2.43,-0.98,6.13,0.04,-0.22,0.48,1721207224130
3.04,-0.63,9.81,-0.05,-0.18,0.18,1721207224140
2.03,-1.08,18.05,-0.09,-0.23,-0.03,1721207224150
-0.79,5.47,14.33,0.18,-0.38,0.02,1721207224160
-1.06,0.45,3.23,-0.01,-0.24,0.21,1721207224170
-2.06,-3.33,10.47,-0.09,-0.2,0.21,1721207224180
-1.22,-3.96,8.45,0.04,-0.26,0.15,1721207224190
-1.02,0.61,7.57,0.06,-0.28,0.34,1721207224200
3.23,3.33,11.31,0.1,-0.11,0.45,1721207224210
4.59,2.22,11.93,0.1,-0.32,0.24,1721207224220
3.34,-0.85,7.24,-0.02,-0.37,-0.01,1721207224230
-1.19,-5.21,12.1,-0.22,-0.33,-0.23,1721207224240
-3.46,3.25,17.98,0.07,-0.25,-0.04,1721207224250
-2.14,1.46,6.7,0.19,-0.27,0.31,1721207224260
1.88,-1.65,7.78,0.03,-0.17,0.45,1721207224270
4.71,5.74,11.11,0.19,-0.22,0.16,1721207224280
4.28,2.46,6.47,0.09,-0.3,-0.27,1721207224290
0.62,0.35,9.76,-0.01,-0.23,-0.29,1721207224300
-1.99,-1.23,11.06,-0.05,-0.28,-0.09,1721207224310
-0.59,-2.8,11.67,-0.09,-0.24,0.13,1721207224320
2.43,-0.51,11.57,-0.0,-0.17,0.14,1721207224330
4.07,1.86,8.69,0.01,-0.17,-0.11,1721207224340
2.32,2.11,9.24,-0.02,-0.16,-0.38,1721207224350
-0.48,1.27,10.28,0.04,-0.16,-0.46,1721207224360
-3.1,-1.58,8.81,-0.08,-0.19,-0.29,1721207224370
-3.09,1.43,14.83,-0.03,-0.09,-0.05,1721207224380
-0.44,1.2,4.18,-0.01,-0.21,-0.05,1721207224390
1.94,-4.41,7.29,-0.29,-0.06,-0.09,1721207224400
2.44,1.8,18.76,-0.02,-0.05,-0.39,1721207224410
1.85,2.55,4.18,0.14,-0.3,-0.42,1721207224420
0.09,-4.82,5.24,-0.38,0.03,-0.38,1721207224430
-2.21,0.17,23.52,-0.16,-0.11,-0.48,1721207224440
-2.06,-1.71,4.38,0.07,-0.23,-0.23,1721207224450
-0.01,-1.99,12.76,-0.39,0.18,-0.14,1721207224460
1.9,4.56,19.87,0.03,-0.14,-0.24,1721207224470
1.4,7.59,4.95,0.15,-0.07,-0.41,1721207224480
-0.47,2.64,6.61,-0.1,0.04,-0.54,1721207224490
-2.2,-3.34,8.52,-0.13,-0.1,-0.39,1721207224500
-1.94,2.7,15.85,-0.14,0.03,-0.15,1721207224510
0.95,-2.34,6.3,-0.08,-0.08,-0.02,1721207224520
4.71,-7.84,13.95,-0.34,0.31,-0.25,1721207224530
1.46,7.02,16.23,0.14,-0.16,-0.5,1721207224540
-0.77,0.89,3.66,0.12,0.05,-0.57,1721207224550
-2.73,5.45,18.8,0.04,0.09,-0.48,1721207224560
-3.45,6.93,8.11,0.36,-0.09,-0.27,1721207224570
-0.4,-5.72,0.74,-0.01,0.19,-0.02,1721207224580
0.79,0.48,12.66,0.04,0.16,-0.17,1721207224590
3.51,0.98,6.26,0.27,0.01,-0.37,1721207224600
0.5,0.94,6.39,0.12,0.2,-0.57,1721207224610
-3.15,-0.68,8.06,0.15,-0.0,-0.57,1721207224620
-4.75,-1.53,9.09,0.05,0.21,-0.29,1721207224630
-1.94,1.22,17.32,-0.03,0.16,0.03,1721207224640
1.23,3.74,11.7,0.07,0.12,0.07,1721207224650
2.69,-2.38,5.44,-0.06,0.09,-0.23,1721207224660
2.06,-1.55,22.65,-0.22,0.26,-0.53,1721207224670
-2.09,7.79,8.08,0.44,-0.19,-0.39,1721207224680
-2.78,-2.53,-10.57,0.04,0.21,-0.23,1721207224690
-2.34,-2.5,20.61,-0.28,0.39,-0.18,1721207224700
-0.81,9.11,9.2,0.44,-0.15,0.08,1721207224710
2.18,-13.86,4.17,-0.57,0.44,-0.16,1721207224720
0.25,0.61,18.63,-0.11,-0.4,-0.24,1721207224730
-0.5,-0.12,1.06,-0.0,0.29,-0.26,1721207224740
1.77,3.07,21.78,-0.08,0.38,-0.29,1721207224750
-2.69,3.67,1.38,0.39,-0.33,-0.14,1721207224760
-2.43,-11.72,0.7,-0.43,0.43,-0.17,1721207224770
-3.92,5.26,15.83,0.12,-0.13,-0.08,1721207224780
1.85,2.0,4.49,0.19,0.21,0.09,1721207224790
1.39,0.04,14.77,-0.23,0.24,-0.24,1721207224800
-1.54,5.23,9.77,0.24,-0.3,-0.19,1721207224810
-2.5,-2.81,3.66,-0.28,0.24,-0.06,1721207224820
-3.09,-1.17,20.22,-0.18,-0.04,0.0,1721207224830
-0.2,1.3,6.53,0.07,-0.06,0.07,1721207224840
1.2,-2.0,12.34,-0.28,0.21,-0.09,1721207224850
-1.42,1.35,17.25,0.01,-0.16,-0.19,1721207224860
-1.5,3.09,11.12,0.05,0.08,-0.06,1721207224870
-1.29,1.86,9.86,0.07,-0.03,0.15,1721207224880
0.36,1.71,7.69,0.11,-0.02,0.19,1721207224890
1.0,4.9,8.28,0.17,-0.11,0.06,1721207224900
2.1,1.16,7.46,0.18,-0.04,-0.08,1721207224910
0.45,-3.17,10.96,0.01,-0.0,-0.12,1721207224920
-2.93,3.31,10.29,0.12,-0.2,-0.1,1721207224930
-3.55,4.62,8.21,0.08,-0.07,0.06,1721207224940
-1.69,1.92,11.02,0.02,-0.13,0.27,1721207224950
-0.18,1.33,6.31,0.21,-0.23,0.26,1721207224960
2.16,-8.07,8.8,-0.29,0.03,0.16,1721207224970
-1.3,6.49,18.94,0.04,-0.39,0.06,1721207224980
1.23,3.82,8.42,0.15,-0.06,0.07,1721207224990
-0.67,1.12,5.89,0.05,-0.28,0.14,1721207225000
-1.06,-3.69,4.95,-0.07,-0.15,0.13,1721207225010
1.21,-0.27,14.69,-0.04,0.04,0.05,1721207225020
1.09,3.96,12.14,0.08,-0.3,0.07,1721207225030
-1.09,0.55,5.2,-0.0,-0.24,0.05,1721207225040
-0.23,-2.66,5.79,-0.09,-0.17,0.04,1721207225050
1.3,-0.99,17.65,-0.21,-0.05,-0.02,1721207225060
-0.06,5.55,16.16,0.13,-0.38,0.02,1721207225070
-0.48,-3.97,-3.51,-0.1,-0.33,-0.01,1721207225080
-1.47,-2.37,14.91,-0.26,0.07,0.04,1721207225090
1.33,-0.08,8.65,0.11,-0.35,-0.01,1721207225100
1.96,-2.43,12.36,-0.28,-0.03,-0.17,1721207225110
1.19,5.45,14.71,0.14,-0.27,-0.15,1721207225120
1.54,-1.33,0.45,-0.09,-0.11,-0.19,1721207225130
0.22,-1.36,15.22,-0.2,-0.1,-0.19,1721207225140
0.71,-5.21,9.39,-0.01,-0.26,-0.18,1721207225150
0.02,0.49,12.89,-0.03,0.02,-0.25,1721207225160
0.57,10.61,12.41,0.11,-0.15,-0.21,1721207225170
0.72,1.92,11.66,-0.3,-0.02,-0.31,1721207225180
-1.35,-5.1,15.93,-0.18,-0.24,-0.4,1721207225190
-1.14,-7.33,-1.2,0.08,-0.11,-0.29,1721207225200
0.28,-2.17,7.25,-0.16,0.18,-0.27,1721207225210
-0.54,4.34,27.39,0.02,0.01,-0.04,1721207225220
1.03,11.81,11.86,0.34,-0.22,-0.05,1721207225230
3.49,-4.8,0.27,-0.12,0.07,-0.36,1721207225240
0.29,-5.76,19.43,-0.31,0.07,-0.7,1721207225250
-2.77,6.03,16.99,0.16,-0.11,-0.52,1721207225260
-1.62,-0.27,4.46,0.01,0.05,-0.12,1721207225270
1.17,0.24,7.39,0.15,0.17,-0.0,1721207225280
4.98,0.06,7.87,0.15,0.21,-0.33,1721207225290
2.38,5.76,16.3,0.07,0.03,-0.64,1721207225300
-1.29,2.54,2.2,0.22,-0.08,-0.61,1721207225310
-1.24,-10.29,6.56,-0.24,0.41,-0.46,1721207225320
-2.29,2.7,26.84,0.17,0.13,-0.41,1721207225330
-1.49,2.37,11.09,0.19,0.04,-0.35,1721207225340
-0.36,5.4,11.71,0.06,0.25,-0.27,1721207225350
2.2,5.64,-0.4,0.4,0.22,-0.37,1721207225360
2.58,-9.52,-0.69,-0.13,0.35,-0.55,1721207225370
-4.68,-1.89,23.02,0.11,0.13,-0.86,1721207225380
-5.92,3.56,8.53,0.44,0.07,-0.44,1721207225390
-2.39,-0.78,6.02,-0.16,0.43,0.05,1721207225400
1.73,4.92,20.32,-0.02,0.3,-0.1,1721207225410
5.07,3.72,7.13,0.17,0.19,-0.3,1721207225420
3.42,-0.58,2.83,-0.13,0.35,-0.65,1721207225430
-1.31,-0.3,9.54,-0.1,0.31,-0.87,1721207225440
-5.0,-4.5,12.53,-0.15,0.3,-0.61,1721207225450
-5.62,4.14,13.07,0.15,0.25,-0.16,1721207225460
-0.52,0.46,3.57,-0.01,0.38,0.15,1721207225470
3.28,1.46,12.71,-0.04,0.44,-0.14,1721207225480
2.5,-2.02,7.77,-0.03,0.09,-0.48,1721207225490
-1.65,-0.68,15.21,-0.23,0.36,-0.67,1721207225500
-3.11,5.9,16.28,0.17,0.28,-0.42,1721207225510
-2.15,-4.23,3.04,-0.16,0.38,-0.09,1721207225520
-0.79,2.1,10.55,0.01,0.38,-0.08,1721207225530
2.09,3.79,4.63,0.06,0.25,-0.27,1721207225540
-0.48,-2.91,10.43,-0.23,0.35,-0.48,1721207225550
-2.87,-4.55,13.03,-0.07,0.33,-0.43,1721207225560
-3.99,1.19,15.08,-0.11,0.37,-0.16,1721207225570
-1.35,4.25,14.21,0.01,0.31,0.16,1721207225580
2.11,-2.46,8.1,-0.04,0.41,-0.01,1721207225590
3.02,-3.02,7.31,0.1,0.31,-0.23,1721207225600
-0.08,-0.61,1.7,0.15,0.22,-0.4,1721207225610
0.95,2.77,17.92,0.11,0.8,-0.44,1721207225620
-1.97,8.7,15.87,0.33,0.18,-0.33,1721207225630
-4.95,0.12,1.6,-0.03,0.24,-0.08,1721207225640
-0.02,-5.14,10.71,-0.08,0.57,0.28,1721207225650
2.68,-5.03,11.18,-0.14,0.32,0.12,1721207225660
0.31,2.38,10.97,0.22,-0.09,-0.5,1721207225675
1.59,4.28,10.08,0.36,0.25,-0.43,1721207225679
-4.71,-8.1,-1.69,-0.09,0.15,-0.11,1721207225689
-5.93,3.01,18.86,0.1,0.55,-0.06,1721207225699
-0.26,6.28,10.84,0.47,0.29,0.18,1721207225709
0.74,-3.1,5.8,-0.17,0.34,0.11,1721207225719
-0.92,-6.47,14.28,-0.05,0.15,-0.01,1721207225729
-1.41,0.49,8.29,0.28,0.35,-0.03,1721207225739
-0.94,7.8,2.49,0.2,0.35,-0.01,1721207225749
-2.25,2.42,6.5,-0.11,0.31,-0.07,1721207225759
-2.16,-7.32,10.68,-0.11,0.18,0.13,1721207225769
0.37,-8.6,14.8,-0.18,0.39,0.22,1721207225779
0.38,4.36,19.78,0.03,0.12,0.18,1721207225789
-0.23,6.94,11.01,0.04,0.11,-0.04,1721207225799
-2.19,-0.32,7.11,0.02,0.06,-0.07,1721207225809
-3.95,-3.94,5.43,-0.02,0.25,0.16,1721207225819
-0.35,-1.76,12.42,-0.14,0.38,0.33,1721207225829
3.68,8.92,13.97,0.34,0.12,0.39,1721207225839
2.86,3.21,-5.94,0.16,-0.07,0.17,1721207225849
3.41,-6.17,11.72,-0.36,0.48,0.03,1721207225859
0.49,7.75,22.82,0.19,0.01,0.07,1721207225869
-0.91,2.6,5.53,-0.16,0.06,0.03,1721207225879
-4.09,1.7,14.26,-0.25,0.03,0.12,1721207225889
-2.04,-1.7,9.22,-0.03,0.26,0.21,1721207225899
-0.17,-7.24,13.77,-0.33,0.17,0.36,1721207225909
0.53,5.5,13.92,0.25,-0.04,0.45,1721207225919
3.17,7.88,-0.46,0.14,0.09,0.23,1721207225929
1.55,1.2,11.09,-0.21,0.01,0.08,1721207225939
-0.34,-9.22,8.26,-0.14,-0.05,0.26,1721207225949
0.04,2.99,17.27,-0.06,0.38,0.07,1721207225959
0.59,6.3,11.24,0.06,-0.13,-0.09,1721207225969
-1.76,0.28,10.67,-0.29,0.08,0.06,1721207225979
-2.28,1.19,10.72,0.02,0.05,0.35,1721207225989
1.04,-3.74,3.71,-0.35,0.15,0.31,1721207225999
0.73,1.88,8.78,-0.11,-0.05,0.18,1721207226009
2.15,-4.41,4.95,-0.36,0.17,-0.16,1721207226019
-2.56,-4.63,25.57,-0.45,-0.2,0.13,1721207226029
-1.82,1.33,18.47,0.1,0.03,0.21,1721207226039
1.53,0.53,-0.62,-0.18,-0.0,0.24,1721207226049
-0.05,0.17,8.75,-0.43,0.04,0.07,1721207226059
0.99,0.29,10.97,0.11,0.08,-0.0,1721207226069
1.17,-0.86,7.12,-0.02,0.13,-0.02,1721207226079
-1.87,6.4,13.71,0.05,-0.14,0.28,1721207226089
0.04,-3.87,4.23,-0.25,0.0,0.27,1721207226099
0.78,4.44,17.67,-0.24,0.12,-0.03,1721207226109
1.04,2.2,10.97,0.02,-0.14,-0.06,1721207226119
-0.67,-9.44,6.17,-0.35,0.04,0.02,1721207226129
-3.18,-2.6,16.42,-0.04,0.0,-0.03,1721207226139
-1.16,3.65,13.74,0.15,-0.03,0.11,1721207226149
0.38,10.58,11.22,0.31,0.02,0.33,1721207226159
2.49,-0.22,6.01,0.18,0.03,0.38,1721207226169
2.84,-8.08,11.41,-0.04,0.1,0.06,1721207226179
1.06,6.32,17.07,0.35,-0.06,-0.26,1721207226189
-1.1,8.91,6.75,0.34,-0.21,-0.08,1721207226199
-0.67,3.67,4.69,0.11,0.1,0.13,1721207226209
1.15,-8.25,11.56,0.11,0.11,0.17,1721207226219
1.66,-1.54,5.77,0.4,-0.06,0.08,1721207226229
1.09,1.14,7.33,0.16,0.11,-0.06,1721207226239
-0.63,6.08,17.76,0.37,-0.02,0.05,1721207226249
0.28,5.5,6.54,0.34,0.05,0.24,1721207226259
2.78,-6.04,8.01,-0.1,0.2,0.12,1721207226269
1.93,-3.4,16.41,0.1,0.04,-0.17,1721207226279
-0.62,5.99,3.68,0.43,-0.05,-0.13,1721207226289
-0.97,-3.61,-0.77,0.09,0.15,0.1,1721207226299
0.98,-0.35,17.41,0.17,0.27,0.07,1721207226309
1.59,0.62,12.33,0.39,-0.03,-0.1,1721207226319
-1.36,4.26,4.54,0.1,0.03,-0.31,1721207226329
-3.8,1.63,7.91,-0.09,0.04,-0.08,1721207226339
-3.78,-4.55,18.18,-0.23,0.18,0.21,1721207226349
-0.6,-0.37,12.56,0.28,-0.06,0.38,1721207226359
3.37,6.87,3.07,0.12,0.18,0.3,1721207226369
4.83,4.91,2.82,-0.19,0.09,-0.03,1721207226379
2.54,-5.51,10.12,-0.4,0.13,-0.27,1721207226389
-2.26,-5.26,11.3,0.01,-0.07,-0.28,1721207226399
-4.42,-1.86,16.17,-0.17,0.08,0.03,1721207226409
-3.1,13.89,21.9,0.2,-0.06,0.31,1721207226419
0.26,3.44,-0.96,-0.09,-0.14,0.46,1721207226429
3.65,-7.72,7.29,-0.54,0.25,0.36,1721207226439
4.64,-3.94,9.47,-0.04,-0.11,0.04,1721207226449
2.98,-2.88,3.93,-0.16,-0.02,-0.19,1721207226459
-3.88,2.75,14.27,0.0,-0.18,-0.28,1721207226469
-4.52,1.33,3.15,0.14,-0.08,0.02,1721207226479
-0.98,-2.89,16.14,-0.57,0.29,0.47,1721207226489
2.89,8.16,19.6,0.01,-0.2,0.72,1721207226499
6.13,-12.11,-1.36,-0.31,-0.07,0.28,1721207226509
8.37,-3.34,19.78,-0.4,0.4,-0.37,1721207226519
1.79,0.66,24.91,-0.1,-0.39,-0.4,1721207226529
-7.02,9.33,6.81,-0.0,-0.27,-0.24,1721207226539
-5.53,9.28,-3.0,0.19,0.08,0.05,1721207226549
1.17,-10.49,7.94,-0.58,0.25,0.34,1721207226559
-0.87,-3.39,24.16,-0.22,-0.22,0.33,1721207226569
2.24,-2.32,7.41,0.31,0.01,0.1,1721207226579
3.83,0.29,6.9,-0.12,0.27,-0.16,1721207226589
-0.9,15.66,9.3,0.67,-0.29,-0.11,1721207226599
-0.98,2.91,-0.75,0.61,-0.15,0.06,1721207226609
0.58,3.98,21.13,-0.18,0.53,-0.01,1721207226619
-0.18,4.26,12.38,0.58,-0.4,-0.0,1721207226629
-1.5,-22.82,-8.66,-0.51,0.14,-0.03,1721207226639
-2.94,1.17,37.21,-0.17,0.17,-0.08,1721207226649
3.75,12.56,14.73,1.02,-0.27,-0.1,1721207226659
-1.78,-4.28,-19.61,0.15,0.01,-0.12,1721207226669
-4.07,1.18,18.28,-0.06,0.15,0.06,1721207226679
0.16,-5.61,18.29,-0.08,-0.1,0.06,1721207226689
0.36,0.01,16.63,-0.02,0.31,-0.3,1721207226699
-4.36,1.06,12.6,0.25,-0.4,-0.12,1721207226709
-5.34,1.38,9.18,0.01,0.13,0.15,1721207226719
1.2,8.36,8.69,0.37,-0.05,0.43,1721207226729
1.38,-3.83,-11.08,-0.04,-0.35,0.22,1721207226739
0.65,-11.61,4.38,-0.39,0.03,-0.12,1721207226749
0.59,0.65,16.45,0.12,0.26,-0.29,1721207226759
0.96,4.56,21.75,0.29,-0.05,-0.18,1721207226769
-3.02,9.19,12.48,0.22,-0.4,0.14,1721207226779
-3.27,6.39,-1.66,0.16,-0.2,0.37,1721207226789
3.64,-15.29,7.32,-0.62,0.2,0.44,1721207226799
2.24,0.31,23.53,0.03,-0.1,0.16,1721207226809
4.6,5.37,5.43,0.3,-0.31,-0.21,1721207226819
-0.71,5.34,6.14,-0.13,0.07,-0.52,1721207226829
-4.84,-3.57,9.7,-0.12,-0.23,-0.16,1721207226839
-6.73,-4.02,7.25,-0.22,-0.1,0.34,1721207226849
-3.19,3.84,14.66,-0.06,-0.08,0.52,1721207226859
3.38,1.92,15.86,-0.03,0.04,0.43,1721207226869
4.16,-0.48,18.01,-0.09,-0.22,0.07,1721207226879
-0.52,0.4,6.04,0.08,-0.48,-0.13,1721207226889
-0.71,7.19,1.1,-0.03,0.14,-0.09,1721207226899
1.96,-2.16,6.57,-0.05,0.02,0.13,1721207226909
-0.43,-4.37,5.04,0.13,-0.28,0.16,1721207226919
2.62,-2.85,8.1,-0.06,0.02,0.03,1721207226929
3.29,3.72,31.84,-0.34,0.09,-0.34,1721207226939
0.36,19.3,24.82,0.41,-0.43,-0.44,1721207226949
-4.64,-10.11,-14.89,-0.35,-0.46,-0.31,1721207226959
-5.98,-15.65,15.83,-0.87,0.6,-0.09,1721207226969
6.46,5.88,21.46,0.49,-0.04,0.26,1721207226979
-3.74,0.19,-10.17,0.42,-0.65,0.35,1721207226989
2.61,1.22,6.18,0.08,0.55,0.18,1721207226999
6.79,10.76,22.29,-0.06,-0.05,-0.02,1721207227009
2.33,-7.16,9.72,-0.26,-0.35,-0.51,1721207227019
-3.59,-7.83,8.43,-0.21,-0.14,-0.57,1721207227029
-3.98,6.06,6.3,0.22,-0.02,-0.3,1721207227039
-2.92,3.8,8.32,0.05,0.02,0.19,1721207227049
0.27,6.78,11.54,0.26,-0.06,0.34,1721207227059
2.93,-4.38,-1.85,0.04,-0.03,0.13,1721207227069
4.93,-8.83,17.75,-0.49,0.26,-0.34,1721207227079
-1.39,6.99,24.4,0.2,-0.41,-0.41,1721207227089
-3.26,-6.47,4.38,-0.01,-0.18,-0.17,1721207227099
-3.87,6.05,18.56,0.12,0.07,0.09,1721207227109
2.68,1.99,-1.21,0.49,-0.02,0.22,1721207227119
4.44,-2.09,5.38,-0.27,0.26,-0.12,1721207227129
-0.55,14.46,22.19,0.37,-0.26,-0.21,1721207227139
1.0,-11.06,-3.6,0.27,-0.18,-0.16,1721207227149
0.06,-5.62,18.36,-0.34,0.51,-0.3,1721207227159
-0.07,14.44,20.64,0.36,-0.22,-0.11,1721207227169
0.43,-3.02,-3.76,0.05,-0.06,0.03,1721207227179
-0.95,1.74,14.45,-0.05,0.28,-0.04,1721207227189
3.67,-5.98,5.78,0.07,0.09,-0.13,1721207227199
-0.19,-0.78,22.12,-0.27,0.14,-0.37,1721207227209
-2.7,7.58,16.96,0.22,-0.1,-0.3,1721207227219
0.25,-7.14,-1.43,-0.16,0.16,0.01,1721207227229
1.92,-0.08,6.5,0.01,0.12,0.1,1721207227239
2.95,-0.73,7.01,0.0,0.21,-0.18,1721207227249
-0.09,0.46,19.35,0.0,0.13,-0.5,1721207227259
-3.84,2.11,3.31,0.35,-0.14,-0.27,1721207227269
-4.25,-6.65,0.76,-0.42,0.31,0.04,1721207227279
-3.64,-0.41,30.53,-0.22,0.11,0.12,1721207227289
-0.81,9.44,3.28,0.63,-0.21,0.22,1721207227299
4.47,-4.07,-1.77,-0.66,0.47,0.08,1721207227309
-0.07,3.73,31.66,-0.28,-0.13,-0.22,1721207227319
-0.46,-3.77,2.23,0.03,-0.08,-0.22,1721207227329
-1.98,0.97,12.35,-0.5,0.38,-0.11,1721207227339
-0.62,6.57,15.55,0.05,-0.08,0.08,1721207227349
1.41,-1.96,10.05,-0.4,0.19,-0.08,1721207227359
0.16,11.0,21.72,0.04,-0.09,-0.09,1721207227369
1.01,2.47,-0.57,-0.0,0.02,-0.01,1721207227379
2.03,-1.87,9.0,-0.49,0.44,-0.07,1721207227389
1.01,-1.97,14.55,0.06,-0.11,-0.15,1721207227399
-0.95,-2.46,0.8,0.23,0.0,-0.27,1721207227409
-1.4,-1.24,8.24,0.03,0.22,-0.12,1721207227419
0.51,7.37,17.73,0.07,0.18,0.04,1721207227429
1.65,4.44,10.45,0.16,0.0,0.12,1721207227439
2.85,-7.48,5.25,-0.25,0.26,-0.13,1721207227449
2.25,-1.4,18.44,-0.19,0.19,-0.34,1721207227459
0.41,3.45,8.87,0.2,-0.01,-0.26,1721207227469
-0.16,0.61,2.04,-0.02,0.32,-0.34,1721207227479
-1.57,1.86,10.85,0.02,0.2,-0.27,1721207227489
-2.18,-1.16,4.69,0.11,0.16,-0.08,1721207227499
0.9,-5.08,14.45,-0.28,0.52,-0.04,1721207227509
1.67,5.89,25.46,-0.07,0.19,-0.12,1721207227519
0.06,7.83,15.1,0.1,0.06,-0.24,1721207227529
-1.05,-1.71,1.57,-0.02,0.12,-0.21,1721207227539
-2.31,-5.22,2.58,-0.07,0.29,-0.1,1721207227549
0.08,2.86,11.54,0.11,0.4,-0.05,1721207227559
-1.07,1.53,6.35,0.17,0.03,-0.18,1721207227569
-2.75,-4.45,7.32,-0.03,0.32,-0.2,1721207227579
-2.68,-2.03,10.66,0.04,0.25,0.03,1721207227589
-0.39,-1.08,15.45,-0.05,0.33,0.15,1721207227599
1.04,2.45,14.5,0.21,0.15,-0.01,1721207227609
0.99,-0.73,5.32,0.15,0.15,-0.17,1721207227619
-2.46,1.36,8.17,0.11,0.17,-0.24,1721207227629
-3.45,-11.31,4.16,-0.15,0.1,-0.15,1721207227639
-3.74,2.25,21.1,0.04,0.51,-0.03,1721207227649
-1.25,10.2,6.9,0.46,-0.08,0.05,1721207227659
-1.86,-4.98,6.79,-0.48,0.23,0.01,1721207227669
0.53,-6.17,18.92,0.19,-0.04,0.19,1721207227684
0.44,-3.56,8.2,0.27,0.12,0.24,1721207227688
1.7,3.59,3.44,0.08,0.19,0.14,1721207227698
0.66,5.58,15.13,0.09,0.15,-0.12,1721207227708
-2.4,10.77,13.92,0.53,-0.18,0.04,1721207227718
-0.28,-7.58,-1.16,0.12,0.12,0.17,1721207227728
1.43,3.22,20.23,-0.13,0.49,0.12,1721207227738
0.59,9.09,13.18,0.18,-0.33,0.1,1721207227748
-2.75,-2.13,1.84,-0.06,0.06,-0.04,1721207227758
-3.34,-4.24,1.9,0.14,-0.05,0.17,1721207227768
1.8,-12.15,16.07,-0.29,0.41,0.35,1721207227778
0.43,16.63,19.27,0.57,-0.27,0.31,1721207227788
0.55,1.68,-9.39,0.02,-0.16,0.09,1721207227798
-7.31,0.2,24.66,-0.33,0.41,0.08,1721207227808
-0.3,-9.16,13.03,0.19,-0.21,0.2,1721207227818
-0.38,-2.37,10.01,-0.29,0.22,0.03,1721207227828
-3.54,13.57,7.58,0.3,-0.46,0.12,1721207227838
-2.03,1.22,-6.09,-0.04,0.08,0.41,1721207227848
0.44,-12.43,1.77,-0.32,-0.23,0.77,1721207227858
4.11,-6.13,30.41,-0.37,0.3,0.45,1721207227868
3.99,11.11,22.65,0.27,-0.31,-0.12,1721207227878
-2.38,1.65,3.6,-0.4,-0.35,-0.41,1721207227888
-7.07,0.85,15.9,-0.31,-0.38,0.3,1721207227898
-1.65,-3.27,6.66,-0.04,-0.0,0.77,1721207227908
4.72,-0.69,7.72,-0.0,0.09,0.61,1721207227918
5.51,0.0,4.66,-0.1,-0.21,0.06,1721207227928
1.29,-0.6,13.01,-0.18,-0.2,-0.26,1721207227938
-3.0,2.29,9.69,0.24,-0.38,-0.06,1721207227948
-0.98,-6.27,7.5,-0.16,0.02,0.24,1721207227958
-0.02,5.37,19.6,0.11,-0.19,0.34,1721207227968
1.73,7.03,7.39,0.11,-0.21,0.09,1721207227978
1.07,1.49,9.01,-0.2,-0.06,-0.05,1721207227988
-1.13,-5.98,10.58,-0.1,-0.24,0.02,1721207227998
-2.5,-2.25,4.26,0.19,-0.26,0.09,1721207228008
0.01,-2.04,0.66,0.16,-0.16,0.19,1721207228018
0.57,-1.7,21.91,-0.27,0.01,0.04,1721207228028
0.46,16.22,29.22,0.32,-0.35,0.17,1721207228038
1.04,-5.29,-4.89,0.22,-0.43,0.14,1721207228048
4.53,-7.01,8.06,-0.48,0.41,-0.1,1721207228058
3.74,9.48,20.87,0.44,-0.43,0.06,1721207228068
-1.76,-2.75,-2.89,0.38,-0.46,0.16,1721207228078
2.7,1.18,7.91,0.1,0.33,0.12,1721207228088
5.46,4.89,11.72,0.25,-0.19,0.08,1721207228098
2.14,3.18,9.1,-0.09,-0.24,-0.17,1721207228108
0.23,-2.57,8.38,-0.07,-0.15,-0.21,1721207228118
1.02,-11.98,17.48,-0.27,0.12,-0.18,1721207228128
-0.52,4.82,21.78,0.45,-0.23,0.03,1721207228138
1.24,5.01,-2.18,0.26,-0.1,0.11,1721207228148
2.75,4.91,8.58,-0.11,0.14,0.01,1721207228158
3.34,-1.87,7.73,0.03,-0.05,-0.24,1721207228168
0.5,-4.13,11.94,-0.15,0.08,-0.4,1721207228178
-2.8,3.13,18.74,0.18,-0.13,-0.22,1721207228188
-1.77,-4.23,0.81,0.06,-0.07,0.13,1721207228198
1.65,-0.92,9.79,-0.18,0.26,0.14,1721207228208
3.69,6.23,16.56,0.06,-0.01,-0.16,1721207228218
2.54,5.27,9.14,0.14,0.0,-0.42,1721207228228
-0.33,-7.26,1.88,-0.39,0.07,-0.44,1721207228238
-4.62,-1.46,25.02,-0.38,0.03,-0.31,1721207228248
-2.14,7.79,20.57,0.26,0.05,-0.09,1721207228258
1.62,8.69,1.02,0.14,0.03,0.12,1721207228268
3.95,-9.11,-8.45,-0.27,0.12,-0.09,1721207228278
3.27,-5.14,19.5,-0.51,0.39,-0.64,1721207228288
1.52,12.72,21.86,0.23,-0.14,-0.68,1721207228298
-4.65,4.48,-1.07,0.31,-0.03,-0.43,1721207228308
-4.2,-5.18,3.0,-0.39,0.21,0.01,1721207228318
0.15,-9.76,26.16,-0.52,0.31,0.15,1721207228328
4.34,9.98,25.87,0.37,0.06,0.06,1721207228338
4.14,2.78,-11.38,0.36,-0.21,-0.3,1721207228348
2.04,-7.44,2.06,-0.7,0.59,-0.85,1721207228358
-9.28,-2.1,30.74,0.01,0.1,-0.52,1721207228368
-7.78,-3.2,13.96,0.35,-0.04,-0.14,1721207228378
-3.41,10.6,8.26,0.24,0.36,0.02,1721207228388
0.77,2.2,1.62,-0.01,0.13,-0.06,1721207228398
1.94,-10.79,14.07,-0.53,0.35,-0.1,1721207228408
1.14,1.16,26.65,0.13,0.08,-0.11,1721207228418
0.23,11.53,-11.45,0.61,-0.08,-0.29,1721207228428
1.33,-12.04,-7.24,-0.9,0.61,-0.56,1721207228438
-4.12,-10.57,35.09,0.24,-0.14,-0.36,1721207228448
-7.56,0.27,14.98,0.63,0.14,-0.02,1721207228458
0.93,1.71,2.18,-0.19,0.56,0.01,1721207228468
-1.0,4.16,11.64,0.01,-0.08,-0.1,1721207228478
-0.79,-2.77,4.59,0.05,0.28,-0.22,1721207228488
-0.12,-5.51,14.03,-0.01,0.28,-0.15,1721207228498
-2.53,-1.81,6.97,0.37,-0.04,-0.09,1721207228508
-2.09,5.26,8.41,0.13,0.41,-0.1,1721207228518
-2.54,11.03,8.87,0.24,-0.11,-0.05,1721207228528
-2.72,-12.49,8.26,-0.5,0.19,-0.11,1721207228538
-3.82,-10.06,26.63,-0.07,0.01,0.12,1721207228548
-2.38,-5.85,2.88,0.38,-0.09,0.29,1721207228558
0.76,2.33,10.35,-0.04,0.39,0.1,1721207228568
-0.25,8.54,14.5,0.31,-0.23,-0.1,1721207228578
-0.27,0.99,2.53,0.06,0.07,-0.12,1721207228588
-1.37,-4.01,11.53,-0.3,0.06,0.03,1721207228598
-3.34,-0.25,18.55,-0.0,-0.11,0.09,1721207228608
-4.01,6.3,2.31,0.24,-0.28,0.14,1721207228618
-1.49,-1.64,5.07,-0.17,0.16,0.08,1721207228628
-1.6,-4.74,16.02,-0.14,-0.16,0.16,1721207228638
-1.18,3.14,15.51,0.07,-0.11,0.29,1721207228648
0.31,7.04,5.53,0.19,-0.19,0.14,1721207228658
0.48,-1.09,12.55,-0.31,-0.02,0.01,1721207228668
-1.42,3.92,21.17,0.3,-0.43,0.22,1721207228678
1.52,-3.3,-3.68,0.15,-0.2,0.32,1721207228688
3.2,3.11,9.81,-0.2,0.11,0.13,1721207228698
1.63,13.3,10.77,0.52,-0.35,-0.02,1721207228708
1.9,-0.21,-6.93,-0.03,-0.11,0.08,1721207228718
3.56,-4.55,14.68,-0.26,0.26,0.14,1721207228728
1.11,0.53,17.01,0.13,-0.19,-0.04,1721207228738
-0.8,5.66,14.39,-0.07,-0.15,-0.02,1721207228748
-3.17,6.45,11.23,0.1,-0.33,0.08,1721207228758
-1.36,-4.33,10.91,-0.24,-0.05,0.21,1721207228768
-0.39,-1.63,13.3,0.08,-0.23,0.25,1721207228778
-0.36,-2.04,-3.33,0.02,-0.33,0.16,1721207228788
0.54,1.98,13.07,-0.16,0.07,0.14,1721207228798
2.46,7.22,18.87,0.29,-0.22,0.13,1721207228808
2.41,1.89,8.97,-0.05,-0.16,-0.1,1721207228818
-1.17,1.45,13.0,-0.11,-0.27,-0.31,1721207228828
-3.88,-2.54,0.68,-0.03,-0.28,-0.15,1721207228838
-4.47,-4.23,5.47,-0.16,-0.05,0.17,1721207228848
0.47,3.41,21.49,0.34,-0.07,0.36,1721207228858
5.13,0.96,2.43,0.3,-0.19,0.12,1721207228868
1.61,0.07,6.87,-0.42,-0.07,-0.4,1721207228878
-3.95,0.18,24.63,-0.08,-0.34,-0.33,1721207228888
-5.19,-6.79,11.09,0.24,-0.21,0.27,1721207228898
-0.19,3.98,8.3,0.32,-0.01,0.54,1721207228908
6.0,-0.8,6.34,-0.1,-0.09,0.29,1721207228918
2.13,0.18,6.07,0.16,-0.32,-0.23,1721207228928
3.25,-5.54,11.74,0.0,0.22,-0.38,1721207228938
-1.08,4.1,14.19,0.14,-0.35,0.19,1721207228948
-0.65,-1.64,13.82,-0.05,-0.14,0.26,1721207228958
4.59,-8.5,20.84,0.13,-0.06,-0.09,1721207228968
2.64,-0.47,-1.15,0.44,-0.51,-0.3,1721207228978
-2.32,9.15,5.16,-0.05,0.12,-0.1,1721207228988
1.15,-4.22,9.9,0.02,-0.0,0.25,1721207228998
4.65,-13.05,5.36,0.05,-0.06,0.17,1721207229008
4.58,-5.38,13.42,0.06,0.02,-0.27,1721207229018
0.83,14.44,26.16,0.52,-0.19,-0.29,1721207229028
-0.26,13.23,0.79,0.42,-0.11,0.05,1721207229038
5.52,-11.4,-7.72,-0.73,0.17,0.26,1721207229048
0.84,-19.09,31.58,-0.25,0.3,-0.42,1721207229058
-1.79,6.84,23.81,0.91,-0.32,-0.72,1721207229068
-5.23,8.59,-15.43,0.28,-0.05,0.02,1721207229078
0.06,1.84,-4.06,-0.5,0.39,0.61,1721207229088
9.81,-14.46,24.32,-0.53,0.48,-0.09,1721207229098
0.56,5.91,33.62,0.92,-0.52,-0.87,1721207229108
-6.68,1.91,-12.65,0.44,-0.18,-0.43,1721207229118
-6.52,6.86,4.77,-0.31,0.08,0.16,1721207229128
-1.56,0.37,14.65,0.23,0.15,0.22,1721207229138
2.02,0.17,-1.33,0.25,-0.1,0.11,1721207229148
3.63,1.75,0.39,-0.21,0.12,0.02,1721207229158
0.34,5.38,15.35,-0.09,-0.05,-0.35,1721207229168
0.84,-1.82,29.42,0.1,0.11,-0.58,1721207229178
-3.29,1.17,16.27,0.65,-0.37,-0.21,1721207229188
-1.71,6.52,-2.87,0.01,0.18,0.17,1721207229198
3.04,6.05,6.39,-0.24,0.16,0.02,1721207229208
5.34,-2.12,12.2,-0.27,0.13,-0.42,1721207229218
-0.01,1.61,9.75,0.37,-0.28,-0.44,1721207229228
-0.92,-0.37,-9.26,-0.18,0.12,-0.43,1721207229238
0.61,-5.44,23.29,-0.58,0.43,-0.26,1721207229248
-2.91,-0.56,20.74,0.32,-0.31,0.14,1721207229258
3.5,-3.34,-2.26,-0.05,0.18,0.25,1721207229268
6.96,-3.17,8.54,-0.07,0.26,-0.2,1721207229278
6.53,-3.21,8.28,0.06,-0.06,-0.62,1721207229288
0.88,7.7,19.32,0.12,0.32,-0.88,1721207229298
-2.7,8.01,1.34,0.06,-0.13,-0.51,1721207229308
-3.35,-9.52,6.0,-0.87,0.51,-0.33,1721207229318
-1.31,-9.25,26.27,-0.14,0.12,0.01,1721207229328
4.28,-3.9,14.65,0.22,0.26,-0.09,1721207229338
3.88,4.64,15.63,-0.01,0.31,-0.74,1721207229348
-2.35,4.18,9.93,0.05,0.09,-0.88,1721207229358
-4.57,-5.17,4.62,-0.15,0.4,-0.5,1721207229368
-4.23,-2.37,11.48,-0.01,0.3,-0.02,1721207229378
0.75,0.46,8.0,0.15,0.31,-0.06,1721207229388
-0.09,2.49,10.06,0.07,0.17,-0.4,1721207229398
-3.62,0.9,6.04,0.14,0.17,-0.58,1721207229408
-4.49,0.93,-0.02,0.08,0.36,-0.36,1721207229418
-2.99,-2.58,11.65,-0.29,0.56,-0.2,1721207229428
-4.05,1.68,24.67,-0.05,0.07,-0.03,1721207229438
-2.72,-8.01,17.52,0.14,0.09,-0.03,1721207229448
-1.71,5.49,16.78,0.44,0.23,-0.04,1721207229458
-1.27,4.83,-3.63,0.07,-0.04,-0.23,1721207229468
-2.38,-4.52,5.56,-0.42,0.43,-0.51,1721207229478
-3.77,2.24,20.75,0.22,-0.02,-0.23,1721207229488
-2.89,-1.07,-3.9,0.13,0.13,-0.01,1721207229498
-1.42,-1.67,9.18,-0.11,0.42,-0.04,1721207229508
-1.42,1.26,3.38,0.03,-0.16,-0.14,1721207229518
-0.32,-0.3,14.58,-0.24,0.57,-0.33,1721207229528
-2.22,5.48,29.63,0.28,0.08,-0.26,1721207229538
-3.38,8.03,0.32,0.34,-0.06,-0.03,1721207229548
-2.49,1.57,-2.23,-0.35,0.17,0.08,1721207229558
0.14,-5.61,10.02,-0.39,0.14,0.07,1721207229568
3.36,-7.93,20.6,-0.01,0.41,0.04,1721207229578
0.62,11.39,5.06,0.81,-0.14,0.02,1721207229588
4.91,-2.55,-2.09,-0.28,0.41,-0.15,1721207229598
-1.29,15.78,30.52,0.04,-0.16,-0.3,1721207229608
1.29,-3.03,-4.37,0.38,-0.03,-0.16,1721207229618
0.95,-5.6,23.12,-0.94,0.94,-0.3,1721207229628
-5.02,18.76,33.62,0.68,-0.29,-0.04,1721207229638
-5.84,-1.48,-23.57,0.27,-0.11,0.09,1721207229648
-5.97,1.66,3.16,-0.53,0.6,0.31,1721207229658
7.66,3.14,8.22,-0.14,0.18,0.58,1721207229668
8.18,-6.47,14.19,-0.18,0.25,0.39,1721207229678
4.58,10.74,27.61,0.57,-0.05,-0.23,1721207229693
5.4,14.01,15.49,0.54,0.13,-0.32,1721207229697
0.74,-3.56,2.12,-0.32,-0.03,-0.33,1721207229707
-7.33,3.04,12.29,0.0,0.15,-0.48,1721207229717
-7.32,-8.59,-8.89,-0.18,0.01,-0.15,1721207229727
-10.44,-6.2,22.84,-0.12,-0.0,0.59,1721207229737
-0.42,-4.11,6.35,0.52,0.31,0.74,1721207229747
6.83,-1.23,13.94,-0.38,0.42,0.14,1721207229757
0.55,11.05,28.3,0.24,-0.39,-0.13,1721207229767
-3.16,-14.54,-8.26,-0.07,-0.14,-0.03,1721207229777
-5.41,-8.93,16.81,-0.0,0.37,0.41,1721207229787
3.65,1.36,6.99,0.59,0.28,0.52,1721207229797
5.62,12.31,5.04,0.32,0.05,0.38,1721207229807
3.14,11.21,-0.85,-0.03,-0.22,0.2,1721207229817
3.91,-11.83,18.4,-0.89,0.49,-0.12,1721207229827
-2.01,-11.18,40.84,0.06,-0.36,-0.0,1721207229837
-4.5,-2.89,0.39,0.73,-0.15,0.15,1721207229847
0.01,8.98,-6.53,0.12,0.24,0.52,1721207229857
4.27,6.75,14.26,-0.21,0.29,0.71,1721207229867
7.19,-2.69,17.78,0.08,-0.08,0.3,1721207229877
5.54,-10.54,1.07,0.06,-0.2,-0.2,1721207229887
0.96,-13.58,6.02,-0.2,0.1,-0.13,1721207229897
-5.32,9.16,33.88,0.64,-0.03,0.17,1721207229907
0.31,16.76,-2.49,0.84,-0.21,0.6,1721207229917
8.92,4.25,-10.89,-0.62,0.69,0.43,1721207229927
5.51,-6.24,14.35,-0.43,-0.19,-0.17,1721207229937
-0.53,-15.07,12.44,-0.49,0.04,-0.58,1721207229947
-6.17,2.49,34.21,0.51,-0.17,0.0,1721207229957
-1.79,2.9,-0.31,0.62,0.09,0.85,1721207229967
4.79,2.06,6.38,-0.29,0.43,0.44,1721207229977
2.62,3.6,19.92,0.04,-0.32,-0.38,1721207229987
-4.86,0.11,7.39,0.0,-0.13,-0.32,1721207229997
-6.76,-7.28,13.93,0.11,0.04,0.4,1721207230007
-1.09,5.12,6.85,0.52,0.06,0.67,1721207230017
4.25,18.08,-8.97,0.36,-0.13,0.4,1721207230027
5.0,2.28,-30.85,-1.22,-0.16,0.17,1721207230037
2.53,-14.68,60.82,-1.06,1.05,-0.7,1721207230047
1.5,5.94,17.22,1.25,-0.67,-0.39,1721207230057
3.17,2.16,-22.79,-0.43,0.4,0.3,1721207230067
-10.4,1.3,16.34,0.18,-0.66,0.22,1721207230077
3.76,-12.96,-17.15,0.0,-0.8,-0.08,1721207230087
3.96,-6.38,31.02,-0.95,1.18,-0.47,1721207230097
1.99,5.39,28.6,0.35,-0.09,-0.2,1721207230107
0.53,-0.01,-12.84,-0.06,-0.36,0.06,1721207230117
5.72,-3.54,12.35,0.03,0.41,0.03,1721207230127
3.83,2.48,15.41,0.23,-0.12,-0.11,1721207230137
3.26,4.74,0.69,-0.21,0.14,-0.1,1721207230147
4.51,-11.0,21.77,-0.77,0.29,-0.26,1721207230157
2.11,6.91,36.24,0.59,-0.33,-0.08,1721207230167
3.52,0.69,-18.53,0.34,-0.25,-0.1,1721207230177
-0.45,7.22,4.34,-0.4,0.49,-0.63,1721207230187
6.14,-1.18,-5.35,-0.27,-0.02,-0.69,1721207230197
-8.64,1.84,29.6,-0.07,-0.41,-0.36,1721207230207
-7.49,13.14,13.94,0.71,0.22,-0.03,1721207230217
-1.37,-13.32,-20.34,-0.32,-0.16,0.16,1721207230227
-6.28,-9.12,22.74,-0.76,0.3,0.28,1721207230237
-0.26,15.3,18.86,0.16,-0.03,0.07,1721207230247
10.04,1.71,3.08,0.23,0.19,-0.18,1721207230257
4.45,-8.99,9.83,-0.32,-0.32,-0.31,1721207230267
-6.96,-3.55,24.04,-0.04,-0.07,-0.29,1721207230277
-3.07,0.42,8.77,0.33,-0.21,0.05,1721207230287
-1.4,-4.0,10.05,-0.15,-0.03,0.08,1721207230297
-3.05,6.13,17.15,0.24,-0.27,0.04,1721207230307
-0.64,2.91,-5.76,0.2,-0.32,0.17,1721207230317
0.93,-8.08,2.26,-0.65,-0.03,0.01,1721207230327
-1.49,-4.12,18.95,-0.09,-0.21,-0.28,1721207230337
-1.88,-1.55,21.29,0.19,-0.24,-0.17,1721207230347
-4.13,2.89,-4.56,0.39,-0.49,0.26,1721207230357
2.34,-2.75,1.51,-0.47,0.38,0.09,1721207230367
-11.52,19.66,32.53,0.03,-0.53,-0.36,1721207230377
0.53,-4.8,6.59,0.22,-0.5,-0.34,1721207230387
-4.01,-8.83,-2.94,-0.29,-0.1,-0.2,1721207230397
-3.9,0.25,8.49,-0.06,-0.27,0.14,1721207230407
-4.13,5.59,15.49,0.11,-0.38,0.3,1721207230417
1.41,7.59,7.89,0.3,-0.13,0.16,1721207230427
2.61,1.13,7.7,-0.26,-0.29,-0.09,1721207230437
-0.05,-1.6,15.92,-0.18,-0.34,-0.2,1721207230447
3.72,-3.1,23.49,-0.03,0.0,-0.07,1721207230457
0.89,12.57,16.76,0.64,-0.47,0.0,1721207230467
0.63,9.92,-13.54,0.42,-0.4,-0.04,1721207230477
2.38,0.46,-8.54,-0.51,0.03,-0.1,1721207230487
1.53,-2.34,9.93,-0.2,-0.18,-0.13,1721207230497
-1.71,-10.25,40.01,-0.43,0.09,-0.4,1721207230507
-4.23,6.58,24.01,0.94,-0.74,-0.2,1721207230517
-1.7,-0.36,-17.16,0.16,0.01,-0.03,1721207230527
-3.85,8.52,13.97,-0.28,-0.15,0.04,1721207230537
-1.74,-4.32,14.75,-0.11,-0.12,-0.05,1721207230547
1.24,-4.57,14.41,-0.07,0.16,-0.32,1721207230557
-1.48,-1.07,10.18,0.14,-0.42,-0.18,1721207230567
-1.68,6.87,10.87,0.12,-0.01,-0.14,1721207230577
0.51,5.44,3.57,0.08,-0.14,-0.12,1721207230587
0.1,-5.1,12.69,-0.58,0.12,-0.25,1721207230597
-1.76,-4.34,25.58,0.16,-0.28,-0.14,1721207230607
-1.18,-1.86,-1.8,0.34,-0.18,-0.04,1721207230617
-0.32,1.17,1.72,-0.26,0.06,0.07,1721207230627
-0.23,5.91,22.55,0.01,-0.07,0.07,1721207230637
1.63,1.2,8.68,0.08,-0.14,-0.12,1721207230647
2.38,-9.79,11.76,-0.37,-0.02,-0.09,1721207230657
0.36,-3.96,20.69,0.14,-0.11,-0.15,1721207230667
1.46,2.55,-1.01,0.38,-0.24,0.01,1721207230677
2.13,2.89,3.29,-0.25,0.18,0.1,1721207230687
2.82,-2.76,20.43,0.01,-0.03,0.01,1721207230697
2.67,-4.59,2.97,0.06,-0.11,-0.35,1721207230707
-1.47,-1.82,14.78,-0.16,-0.01,-0.35,1721207230717
-0.49,0.57,22.31,0.29,0.12,0.01,1721207230727
2.45,-2.77,3.82,0.21,0.05,0.16,1721207230737
3.39,-1.36,12.33,0.09,0.25,-0.19,1721207230747
0.25,6.22,6.54,0.29,-0.14,-0.37,1721207230757
-0.68,-2.21,6.43,-0.42,0.36,-0.27,1721207230767
-3.13,-5.29,29.0,0.02,0.02,0.06,1721207230777
-0.36,0.68,8.83,0.59,-0.06,0.3,1721207230787
6.13,5.24,-8.22,0.2,0.22,0.16,1721207230797
5.77,4.41,5.58,-0.35,0.18,-0.15,1721207230807
1.24,-0.38,19.07,-0.14,0.04,-0.49,1721207230817
-3.17,-3.28,14.93,0.21,0.07,-0.32,1721207230827
-1.06,-1.4,-5.95,0.12,-0.02,0.18,1721207230837
-2.26,0.72,18.8,-0.4,0.34,0.02,1721207230847
-1.66,13.35,21.61,0.63,-0.17,0.01,1721207230857
0.76,-2.01,-19.9,-0.16,-0.18,0.15,1721207230867
-0.29,-10.01,15.49,-0.85,0.49,0.06,1721207230877
-2.72,0.28,36.42,0.2,0.0,-0.09,1721207230887
-1.34,6.88,9.89,0.49,-0.25,-0.01,1721207230897
1.42,11.7,-4.13,0.05,0.03,0.33,1721207230907
6.45,-2.51,8.51,-0.71,0.38,0.05,1721207230917
1.98,-9.0,19.3,-0.32,-0.25,-0.35,1721207230927
-1.49,-10.87,19.42,-0.2,0.14,-0.34,1721207230937
-0.68,5.15,17.19,0.64,-0.1,0.02,1721207230947
2.62,11.93,-6.17,0.49,0.01,0.02,1721207230957
0.69,8.07,-7.29,-0.34,-0.04,-0.17,1721207230967
0.31,-7.39,18.31,-0.91,0.41,-0.35,1721207230977
0.82,-11.92,33.7,-0.25,-0.1,-0.03,1721207230987
1.75,0.3,12.29,0.62,-0.18,0.18,1721207230997
5.51,1.71,-7.54,0.23,0.12,-0.16,1721207231007
4.2,7.33,13.59,-0.17,0.32,-0.58,1721207231017
-0.68,3.81,15.08,-0.01,-0.23,-0.5,1721207231027
-2.04,-11.0,19.59,-0.5,0.32,-0.4,1721207231037
-0.85,4.32,29.12,0.34,0.01,-0.23,1721207231047
-2.51,7.29,-13.81,0.52,-0.32,-0.09,1721207231057
0.23,-2.19,-3.96,-0.48,0.68,-0.36,1721207231067
2.5,-7.22,12.16,0.15,-0.1,-0.41,1721207231077
-4.07,-7.72,21.54,-0.17,0.05,-0.52,1721207231087
-6.25,6.27,24.78,0.36,-0.09,-0.42,1721207231097
-2.38,-2.12,1.42,0.31,0.17,-0.27,1721207231107
-1.98,6.09,13.01,-0.1,0.46,-0.25,1721207231117
-0.54,1.9,6.79,0.24,-0.22,-0.13,1721207231127
-2.57,-10.81,-8.8,-0.19,0.19,-0.26,1721207231137
-1.48,-8.48,19.2,-0.3,0.43,-0.44,1721207231147
1.98,-0.36,26.34,0.28,-0.2,-0.18,1721207231157
-1.85,4.1,1.85,0.47,0.21,-0.25,1721207231167
-2.94,-2.42,-0.78,-0.16,0.01,-0.32,1721207231177
-5.5,2.97,27.72,-0.17,0.43,-0.43,1721207231187
-2.22,4.87,16.52,0.44,-0.08,-0.17,1721207231197
-2.31,-0.68,-1.31,-0.25,0.11,-0.07,1721207231207
-1.63,-2.92,4.24,-0.31,0.14,-0.23,1721207231217
-1.51,-1.53,7.6,-0.13,0.16,-0.28,1721207231227
-1.59,-4.88,6.81,-0.17,0.03,-0.15,1721207231237
0.06,0.57,25.21,0.05,0.36,-0.07,1721207231247
1.04,14.11,17.52,0.47,0.05,-0.21,1721207231257
-0.34,10.06,1.98,-0.02,0.06,-0.3,1721207231267
-2.32,-4.87,7.68,-0.53,0.1,-0.26,1721207231277
-1.91,2.81,12.81,0.27,0.02,0.06,1721207231287
2.08,0.07,-13.32,0.22,0.03,0.08,1721207231297
2.11,0.83,9.95,-0.55,0.52,-0.23,1721207231307
6.03,4.77,14.96,-0.16,-0.26,-0.31,1721207231317
-1.43,-7.48,31.39,-0.38,0.5,-0.4,1721207231327
-4.59,9.08,35.58,0.69,-0.21,-0.11,1721207231337
-7.58,6.46,-11.35,0.49,-0.13,0.11,1721207231347
-4.58,8.06,-6.49,-0.23,0.27,0.48,1721207231357
2.47,-7.74,-0.42,-0.29,0.18,0.51,1721207231367
7.23,-4.84,12.44,0.03,0.31,-0.03,1721207231377
4.82,2.37,16.9,0.21,-0.04,-0.43,1721207231387
-1.51,8.58,15.25,-0.01,0.04,-0.49,1721207231397
-5.32,-1.11,8.33,-0.21,-0.01,-0.25,1721207231407
-5.21,-10.18,13.22,-0.26,0.25,0.1,1721207231417
-3.76,1.59,6.68,0.4,0.02,0.32,1721207231427
1.61,-5.43,-6.1,-0.18,0.31,0.32,1721207231437
1.69,4.75,17.88,-0.04,0.11,0.08,1721207231447
3.21,-1.49,12.37,0.0,0.02,-0.14,1721207231457
-2.7,1.44,21.05,-0.13,0.04,-0.27,1721207231467
-0.81,-11.3,-0.23,-0.07,-0.08,0.08,1721207231477
-6.4,-1.68,9.35,0.05,0.33,0.09,1721207231487
1.67,3.03,5.11,0.37,0.03,0.39,1721207231497
6.18,0.41,10.46,-0.07,0.39,0.06,1721207231507
2.92,0.9,16.73,0.11,-0.15,-0.18,1721207231517
-1.43,-4.35,15.3,-0.2,0.1,-0.26,1721207231527
-2.32,6.48,20.54,0.46,-0.09,0.08,1721207231537
2.26,0.49,-10.3,0.35,0.09,0.45,1721207231547
6.12,-1.75,8.78,-0.28,0.56,0.1,1721207231557
7.01,8.76,11.02,0.38,-0.1,-0.26,1721207231567
1.32,-10.32,3.64,-0.22,0.14,-0.48,1721207231577
-4.39,2.06,33.44,0.21,-0.0,-0.1,1721207231587
-1.34,5.53,0.25,0.73,0.11,0.41,1721207231597
5.47,10.46,-0.75,-0.06,0.57,0.38,1721207231607
5.66,-1.14,6.94,-0.19,0.02,-0.06,1721207231617
1.6,-10.64,17.15,-0.22,0.32,-0.57,1721207231627
-2.77,0.28,15.35,0.43,0.09,-0.42,1721207231637
-3.76,-0.85,2.72,0.05,0.18,0.1,1721207231647
-1.3,7.68,8.35,0.21,0.27,0.29,1721207231657
3.19,-4.42,1.48,-0.16,0.17,0.06,1721207231667
-1.03,0.93,19.27,0.0,0.14,-0.23,1721207231677
-3.19,-1.97,2.06,0.17,0.04,-0.15,1721207231687
-3.1,9.17,17.51,0.05,0.2,0.31,1721207231702
0.03,5.8,10.68,0.22,0.03,0.37,1721207231706
4.96,-4.32,-8.15,-0.45,0.31,0.3,1721207231716
1.07,-5.14,33.13,-0.66,0.72,-0.27,1721207231726
1.64,3.87,29.53,0.31,-0.09,-0.45,1721207231736
0.79,4.91,2.3,0.24,0.23,-0.17,1721207231746
0.46,1.84,-2.06,-0.28,0.18,0.15,1721207231756
-1.01,2.26,15.5,-0.37,0.29,-0.27,1721207231766
-1.13,7.08,2.99,0.34,-0.11,-0.26,1721207231776
-1.3,-8.78,-1.49,-0.75,0.39,-0.03,1721207231786
-12.16,2.78,33.26,-0.15,-0.1,0.04,1721207231796
0.38,0.62,0.95,0.33,0.02,0.35,1721207231806
4.61,3.46,4.83,-0.33,0.53,0.18,1721207231816
5.51,1.3,16.57,-0.25,0.03,-0.09,1721207231826
2.73,-0.25,19.43,-0.1,0.21,-0.37,1721207231836
-0.18,-2.77,10.38,0.04,0.06,-0.3,1721207231846
-2.61,-6.94,4.39,-0.18,0.2,-0.22,1721207231856
-3.81,-1.98,13.03,-0.08,0.21,-0.02,1721207231866
-1.76,6.5,16.89,0.29,0.14,0.14,1721207231876
-0.64,7.93,8.09,0.29,-0.01,0.03,1721207231886
0.13,-4.05,6.71,-0.17,0.24,-0.14,1721207231896
-2.45,-2.31,20.52,-0.01,0.18,-0.13,1721207231906
-2.33,5.48,11.23,0.4,0.06,0.08,1721207231916
-2.5,1.87,-2.08,0.09,-0.03,0.12,1721207231926
-0.46,-10.36,12.56,-0.25,0.23,0.22,1721207231936
-0.39,-1.98,18.56,0.29,-0.17,0.28,1721207231946
0.83,-1.62,7.78,0.08,0.07,0.05,1721207231956
-2.14,4.96,18.18,0.25,-0.06,-0.23,1721207231966
-4.61,3.57,3.76,0.44,-0.29,0.02,1721207231976
-1.35,-0.57,0.87,-0.01,0.34,0.32,1721207231986
0.82,0.31,9.89,-0.04,-0.08,0.42,1721207231996
1.51,-2.57,10.06,-0.19,-0.02,0.14,1721207232006
-0.22,4.1,11.49,0.17,-0.24,-0.08,1721207232016
-0.81,-4.68,4.72,-0.24,-0.03,-0.04,1721207232026
-3.42,0.39,20.91,-0.04,-0.19,0.31,1721207232036
0.27,-4.51,9.96,0.1,-0.09,0.37,1721207232046
1.83,6.11,14.87,0.24,-0.09,0.1,1721207232056
1.12,6.9,2.61,0.33,-0.36,0.0,1721207232066
-0.76,4.98,2.12,-0.02,-0.03,-0.06,1721207232076
-0.64,-1.61,2.97,-0.08,-0.2,0.15,1721207232086
-1.93,-0.52,2.57,-0.3,-0.18,0.14,1721207232096
1.91,-0.9,30.17,-0.3,0.3,0.03,1721207232106
1.3,2.36,11.86,0.53,-0.66,0.04,1721207232116
1.03,-6.78,-0.26,-0.36,0.04,0.09,1721207232126
-6.88,14.38,32.63,0.12,-0.4,0.12,1721207232136
3.37,9.05,5.04,0.33,-0.28,0.17,1721207232146
3.11,-4.28,7.66,-0.48,0.04,-0.02,1721207232156
-0.47,-4.3,10.37,-0.02,-0.28,-0.15,1721207232166
-2.23,-0.05,-0.87,-0.06,-0.18,-0.1,1721207232176
-2.85,3.03,9.41,-0.09,-0.1,0.12,1721207232186
0.66,4.97,16.42,0.11,-0.01,0.26,1721207232196
2.78,0.42,4.57,-0.09,-0.14,0.04,1721207232206
1.55,-1.98,18.45,-0.51,0.05,-0.42,1721207232216
-2.38,-2.06,21.29,-0.12,-0.33,-0.35,1721207232226
-7.97,2.18,7.59,0.06,-0.19,-0.02,1721207232236
-2.9,-2.82,-0.03,-0.01,-0.12,0.52,1721207232246
3.84,0.38,3.5,-0.04,0.01,0.46,1721207232256
6.11,-3.69,16.26,-0.37,0.05,-0.17,1721207232266
-0.1,7.09,30.21,0.01,-0.33,-0.56,1721207232276
-3.27,4.0,0.42,0.4,-0.33,-0.16,1721207232286
-1.26,-1.93,-8.24,-0.2,0.13,0.09,1721207232296
0.12,-0.18,6.69,0.09,-0.18,0.16,1721207232306
5.84,0.46,10.63,-0.08,0.1,-0.15,1721207232316
1.71,4.48,20.94,0.06,-0.13,-0.23,1721207232326
-1.81,-2.77,-0.01,-0.05,-0.26,-0.19,1721207232336
-2.09,-6.5,16.09,-0.49,0.08,-0.15,1721207232346
-0.62,5.72,23.58,0.36,-0.09,0.06,1721207232356
1.5,-0.74,1.55,0.17,-0.08,0.11,1721207232366
1.09,5.17,7.57,0.19,0.01,-0.03,1721207232376
3.37,-5.46,0.44,-0.02,-0.01,-0.3,1721207232386
-2.76,-2.72,21.78,-0.26,-0.07,-0.36,1721207232396
-4.59,7.75,20.54,0.48,-0.13,-0.09,1721207232406
0.03,-1.35,-4.41,0.21,-0.05,0.36,1721207232416
3.45,-1.12,4.97,-0.11,0.19,0.3,1721207232426
5.14,-3.31,15.93,-0.04,0.02,-0.07,1721207232436
1.08,2.27,19.06,0.08,-0.11,-0.41,1721207232446
-1.47,1.02,8.86,0.32,-0.11,-0.09,1721207232456
0.94,-2.83,3.4,0.0,0.21,0.14,1721207232466
3.11,3.23,14.26,0.06,0.08,0.06,1721207232476
2.77,2.58,7.96,0.09,-0.04,-0.25,1721207232486
-0.4,-2.75,10.54,-0.07,0.18,-0.48,1721207232496
-3.0,2.55,12.94,0.18,-0.0,-0.11,1721207232506
-0.97,2.6,5.37,0.07,0.19,0.17,1721207232516
3.11,2.05,11.54,-0.1,0.24,0.05,1721207232526
3.17,2.88,12.13,0.14,0.08,-0.23,1721207232536
2.49,1.29,3.29,-0.04,0.17,-0.49,1721207232546
-2.46,2.36,9.92,-0.02,0.02,-0.37,1721207232556
-3.36,-3.92,7.36,-0.19,0.2,-0.23,1721207232566
-2.14,4.01,19.59,-0.03,0.16,-0.0,1721207232576
0.03,6.7,9.35,0.15,0.04,-0.03,1721207232586
1.38,4.21,7.59,-0.18,0.25,-0.15,1721207232596
0.22,-5.49,8.15,-0.34,0.07,-0.31,1721207232606
-0.63,-1.49,15.26,-0.2,0.2,-0.33,1721207232616
-0.85,3.75,10.65,0.07,0.06,-0.21,1721207232626
-2.42,2.1,5.84,-0.07,0.08,-0.11,1721207232636
-1.71,-7.2,5.58,-0.14,0.11,-0.06,1721207232646
1.07,-4.34,13.96,-0.08,0.25,0.01,1721207232656
3.23,6.34,15.76,0.16,0.2,-0.14,1721207232666
0.76,6.93,8.05,0.07,-0.04,-0.36,1721207232676
-2.38,-2.45,14.14,-0.21,0.21,-0.35,1721207232686
-4.24,2.15,5.15,0.39,-0.15,0.04,1721207232696
-0.05,-14.58,-6.08,-0.63,0.38,0.1,1721207232706
10.43,-3.82,29.7,0.07,0.77,-0.18,1721207232716
-0.94,0.9,12.78,0.46,-0.33,-0.42,1721207232726
-3.35,1.69,11.67,-0.27,0.51,-0.34,1721207232736
-2.18,9.15,5.48,0.37,-0.4,0.23,1721207232746
-0.06,-10.15,7.92,-0.48,0.39,0.25,1721207232756
-0.22,5.53,30.03,0.18,-0.17,0.1,1721207232766
1.45,4.34,-9.51,0.72,-0.4,-0.08,1721207232776
0.17,-6.82,-2.93,-0.47,0.45,-0.13,1721207232786
-7.76,5.44,28.67,-0.01,0.62,-0.19,1721207232796
-2.52,-3.85,3.74,0.41,-0.36,-0.13,1721207232806
0.7,-2.63,12.54,-0.22,0.52,-0.22,1721207232816
-1.32,11.27,17.66,0.5,-0.43,0.21,1721207232826
-1.05,-6.37,-2.89,-0.0,0.1,0.26,1721207232836
-2.49,1.59,21.7,0.11,0.44,0.07,1721207232846
1.85,3.88,3.75,0.48,-0.43,-0.07,1721207232856
-2.96,-5.62,-1.2,-0.26,0.05,-0.2,1721207232866
-4.31,1.97,30.1,-0.13,0.09,-0.13,1721207232876
-3.51,6.71,8.55,0.54,-0.37,0.08,1721207232886
-1.82,-6.95,2.16,-0.33,0.22,0.11,1721207232896
-2.46,1.44,13.41,0.27,-0.26,0.28,1721207232906
4.8,-0.04,-3.32,0.09,0.04,0.43,1721207232916
4.84,11.39,22.97,-0.05,0.31,0.06,1721207232926
3.76,6.68,3.98,0.43,-0.51,-0.19,1721207232936
1.39,-14.16,-1.47,-0.6,0.27,-0.57,1721207232946
0.6,-7.81,26.17,-0.14,0.04,-0.17,1721207232956
-6.96,6.95,10.97,0.39,-0.26,0.27,1721207232966
-0.81,3.13,0.18,-0.07,-0.0,0.52,1721207232976
4.49,-2.21,10.89,-0.2,0.03,0.27,1721207232986
3.89,-4.68,10.04,-0.23,-0.21,-0.15,1721207232996
-1.3,-2.59,20.12,-0.48,-0.08,-0.5,1721207233006
-5.15,6.03,19.03,0.1,-0.3,-0.15,1721207233016
-4.1,1.81,0.14,0.03,-0.2,0.42,1721207233026
0.48,-1.15,3.52,-0.04,0.04,0.52,1721207233036
6.61,-5.33,5.46,-0.34,0.12,0.08,1721207233046
1.82,-0.1,30.66,-0.56,-0.17,-0.51,1721207233056
-3.87,10.69,20.03,0.41,-0.5,-0.31,1721207233066
-2.64,-5.09,-15.89,0.07,-0.13,0.13,1721207233076
-1.49,-3.53,7.0,-0.26,0.16,0.33,1721207233086
6.85,-7.87,15.47,-0.29,0.03,0.13,1721207233096
2.65,4.92,19.85,0.11,-0.16,-0.15,1721207233106
0.19,0.55,4.96,0.06,-0.36,-0.17,1721207233116
-0.67,6.97,10.21,0.08,0.02,-0.08,1721207233126
3.62,-0.06,8.57,-0.06,0.02,-0.02,1721207233136
1.51,-3.94,15.26,-0.14,-0.02,-0.21,1721207233146
-2.13,0.09,5.75,0.17,-0.25,-0.22,1721207233156
-0.75,-2.83,14.09,-0.14,0.23,-0.19,1721207233166
-0.15,5.55,12.02,0.36,-0.24,0.25,1721207233176
2.4,-4.33,1.57,-0.21,0.24,0.14,1721207233186
-0.41,11.53,25.36,0.18,-0.22,-0.19,1721207233196
2.58,-3.64,3.16,0.31,-0.15,-0.14,1721207233206
1.63,-7.05,9.72,-0.23,0.35,-0.3,1721207233216
-1.74,11.09,16.04,0.35,-0.22,-0.06,1721207233226
-0.99,3.62,0.66,0.06,0.08,0.01,1721207233236
0.77,-1.43,10.69,0.16,0.0,0.1,1721207233246
4.1,-11.94,3.86,-0.03,0.13,-0.02,1721207233256
1.03,-0.42,21.93,-0.15,0.09,-0.31,1721207233266
0.25,14.11,14.81,0.48,-0.12,-0.18,1721207233276
0.94,1.56,-1.08,0.04,0.18,-0.18,1721207233286
0.57,-6.08,10.86,0.13,0.09,-0.15,1721207233296
0.79,2.1,5.6,0.15,0.2,-0.19,1721207233306
-0.6,7.62,10.69,-0.16,0.09,-0.25,1721207233316
-1.81,-5.47,20.75,-0.16,0.16,-0.35,1721207233326
-1.84,0.99,1.89,0.33,-0.09,-0.01,1721207233336
2.21,3.87,1.06,-0.22,0.49,0.01,1721207233346
2.89,0.85,17.99,-0.23,0.06,-0.26,1721207233356
0.44,-8.68,16.54,-0.37,0.12,-0.52,1721207233366
-2.76,3.84,14.77,0.12,0.04,-0.38,1721207233376
-1.39,3.34,-5.1,-0.03,0.14,-0.08,1721207233386
-0.83,-0.77,10.96,-0.2,0.29,-0.14,1721207233396
1.82,-1.54,16.52,-0.13,0.22,-0.31,1721207233406
-0.48,4.49,17.71,0.0,0.05,-0.35,1721207233416
-2.3,4.82,-2.49,0.12,-0.0,-0.22,1721207233426
-1.57,-10.75,5.42,-0.54,0.35,-0.2,1721207233436
0.19,-0.04,26.36,-0.05,0.22,-0.16,1721207233446
0.24,8.35,3.97,0.46,-0.1,-0.17,1721207233456
-0.31,-4.25,-4.67,-0.05,0.28,-0.33,1721207233466
-6.76,-0.87,24.18,-0.29,0.41,-0.44,1721207233476
-0.29,6.59,22.89,0.01,0.21,-0.39,1721207233486
-1.3,4.52,3.66,0.13,0.11,-0.16,1721207233496
-2.45,-5.84,-5.93,0.15,0.13,-0.12,1721207233506
0.55,-5.25,15.05,-0.18,0.5,-0.06,1721207233516
2.8,10.74,20.31,0.26,-0.12,0.08,1721207233526
0.41,-2.38,2.36,-0.09,0.17,-0.32,1721207233536
-4.19,-2.58,17.7,-0.18,0.32,-0.59,1721207233546
-4.21,2.55,13.5,0.25,0.06,-0.17,1721207233556
-3.36,1.89,5.6,0.15,0.26,0.2,1721207233566
0.3,3.14,8.8,0.25,0.28,0.03,1721207233576
1.19,-2.77,8.62,0.1,0.1,-0.26,1721207233586
-0.27,0.14,12.36,0.08,0.18,-0.19,1721207233596
-1.26,2.96,6.75,0.17,0.16,-0.22,1721207233606
0.23,1.87,15.15,-0.05,0.32,-0.16,1721207233616
-3.51,1.49,10.88,0.32,-0.08,0.01,1721207233626
-1.64,-6.85,2.74,-0.01,0.23,0.11,1721207233636
