AccX,AccY,AccZ,GyrX,GyrY,GyrZ,Time
1.28,7.23,5.05,0.26,-0.26,-0.61,1721744195606
-1.75,0.79,-0.49,0.2,-0.29,-0.11,1721744195615
0.53,-6.4,-6.39,-0.43,0.06,-0.02,1721744195624
-2.4,-1.43,19.73,-0.62,-0.16,-0.24,1721744195633
-4.56,0.26,20.16,0.1,-0.26,-0.17,1721744195642
-2.88,-5.4,-2.02,0.01,-0.31,0.02,1721744195651
-4.46,4.15,-1.19,-0.15,-0.01,0.24,1721744195660
0.39,-6.92,-11.54,-0.45,-0.4,0.52,1721744195669
4.47,-20.8,23.05,-1.2,0.69,0.29,1721744195678
-0.45,3.08,64.31,0.26,-0.53,0.28,1721744195687
-1.59,1.56,12.76,1.14,-0.47,0.05,1721744195696
7.09,1.91,-15.22,0.31,0.03,-0.17,1721744195705
-0.31,3.75,-12.89,-0.3,-0.02,-0.18,1721744195714
4.22,-4.14,3.34,-0.35,0.33,-0.25,1721744195723
-4.92,-8.15,6.6,-0.1,-0.19,-0.25,1721744195732
-1.27,-1.49,23.24,-0.02,0.33,-0.26,1721744195741
-1.51,-7.86,17.72,0.12,-0.17,0.04,1721744195750
-0.86,5.91,18.67,0.23,0.37,0.17,1721744195759
4.86,10.84,7.6,0.24,0.06,0.42,1721744195768
6.43,10.65,6.98,-0.13,0.55,-0.03,1721744195777
4.27,7.64,13.79,-0.05,0.05,-0.58,1721744195786
-1.81,-0.35,4.37,-0.18,-0.02,-0.73,1721744195795
-6.09,-5.3,12.64,-0.47,0.24,-0.2,1721744195804
-5.84,5.38,18.71,-0.26,0.13,0.27,1721744195813
-0.57,9.9,12.96,0.04,0.28,0.5,1721744195822
5.83,8.58,6.79,-0.14,0.23,0.29,1721744195831
4.74,6.26,4.56,-0.22,0.06,-0.35,1721744195840
1.46,-8.68,2.41,-0.49,-0.1,-0.6,1721744195849
-2.24,-17.95,16.19,-0.71,0.24,-0.6,1721744195858
-4.93,7.45,26.77,0.22,-0.05,-0.21,1721744195867
-1.41,-1.65,-4.6,0.26,-0.01,-0.1,1721744195876
0.63,0.88,-4.86,-0.4,0.33,-0.12,1721744195885
-0.02,-5.88,13.27,-0.5,0.15,-0.13,1721744195894
0.44,-16.74,23.7,-0.46,0.33,-0.38,1721744195903
-2.3,-10.0,25.51,0.14,-0.12,-0.81,1721744195912
-7.03,2.66,1.38,0.55,-0.18,-1.14,1721744195921
-11.25,0.48,-5.78,-0.12,-0.04,-0.65,1721744195930
-13.89,6.89,8.57,0.05,0.11,0.15,1721744195939
-2.09,-0.82,11.86,-0.2,0.3,0.51,1721744195948
-1.24,8.45,24.9,-0.07,-0.02,0.22,1721744195957
3.77,1.62,18.88,0.13,-0.26,0.1,1721744195966
3.26,1.73,4.3,0.24,-0.07,-0.24,1721744195975
-2.74,0.3,-3.18,0.15,-0.19,-0.35,1721744195984
-7.77,4.56,5.13,0.11,0.05,-0.16,1721744195993
-7.24,7.32,21.83,0.17,-0.24,0.53,1721744196002
-1.19,16.14,17.34,0.58,-0.14,1.18,1721744196011
7.9,-3.28,4.42,0.05,-0.14,0.81,1721744196020
9.71,4.78,19.77,-0.05,0.08,0.02,1721744196029
6.88,8.83,23.25,0.35,-0.3,-0.33,1721744196038
2.62,3.72,5.3,0.49,-0.27,-0.35,1721744196047
-1.32,-3.82,-3.34,0.1,-0.05,-0.23,1721744196056
-4.54,0.91,1.37,0.13,-0.1,0.01,1721744196065
-2.02,-8.3,-0.94,-0.25,-0.07,0.31,1721744196074
-0.71,1.12,11.58,-0.01,0.12,0.49,1721744196083
5.66,-7.7,-2.19,0.03,-0.21,0.32,1721744196093
7.26,-14.36,6.77,-0.54,0.2,-0.29,1721744196102
2.12,-5.77,27.9,0.1,-0.28,-0.17,1721744196111
2.17,-2.06,7.5,0.25,0.13,0.06,1721744196120
3.68,-2.92,8.73,-0.39,0.67,-0.14,1721744196129
-2.83,2.48,24.28,-0.01,0.12,-0.31,1721744196138
-1.66,-4.92,9.47,0.31,0.12,-0.33,1721744196147
-4.88,-0.96,-3.09,-0.01,0.11,-0.21,1721744196156
-2.77,1.57,-2.06,-0.08,0.16,0.03,1721744196165
1.44,-9.0,0.73,-0.4,0.31,0.01,1721744196174
-0.54,3.89,30.28,0.02,0.34,-0.23,1721744196183
2.07,10.53,22.09,0.78,0.07,0.03,1721744196192
3.08,-7.09,-4.38,0.1,-0.01,0.35,1721744196201
7.14,4.28,16.06,-0.17,0.71,0.15,1721744196210
9.19,7.66,17.12,0.28,0.11,-0.39,1721744196219
2.62,4.31,4.56,0.05,-0.03,-0.97,1721744196228
-3.04,6.58,13.37,0.05,0.28,-0.92,1721744196237
-6.8,-0.2,6.72,0.14,0.04,-0.38,1721744196246
-6.06,-4.12,5.73,-0.26,0.44,-0.05,1721744196255
-3.04,4.72,18.21,-0.09,0.4,0.24,1721744196264
2.28,3.41,8.7,0.1,0.36,0.16,1721744196273
5.17,2.1,7.62,-0.09,0.27,-0.27,1721744196282
1.09,-6.52,9.0,-0.23,0.11,-0.83,1721744196291
-2.73,-7.34,18.63,-0.13,0.11,-0.86,1721744196300
-4.76,-3.77,12.52,0.05,0.32,-0.45,1721744196309
-4.76,1.95,14.78,-0.16,0.4,-0.24,1721744196318
-1.2,-9.71,3.39,-0.01,-0.04,-0.33,1721744196332
-2.21,-4.9,3.17,0.11,0.3,-0.47,1721744196336
-4.31,-2.36,-0.22,-0.24,0.01,-0.45,1721744196345
-5.07,-3.62,19.06,-0.41,0.34,-0.4,1721744196354
-2.53,-6.5,21.53,0.01,-0.03,-0.05,1721744196363
-3.08,0.85,6.68,0.22,0.08,0.03,1721744196372
-2.47,2.62,4.92,0.15,0.07,0.07,1721744196381
-0.22,-1.1,7.55,-0.02,0.08,0.1,1721744196390
-2.21,10.46,19.26,0.2,0.08,0.14,1721744196399
-1.71,16.26,9.22,0.63,-0.01,0.01,1721744196408
-1.32,-3.58,-10.88,-0.01,-0.29,-0.05,1721744196417
-5.83,-9.3,11.86,-0.51,0.36,-0.01,1721744196426
-9.31,11.16,25.17,0.32,-0.61,0.46,1721744196435
-5.21,13.75,10.11,0.49,0.22,0.52,1721744196444
6.94,5.25,8.78,0.18,-0.17,0.58,1721744196453
3.98,-4.42,-1.57,0.01,-0.16,0.42,1721744196462
7.64,-1.35,10.97,-0.35,0.15,-0.09,1721744196471
1.96,8.05,30.93,-0.04,-0.05,-0.29,1721744196480
-2.41,-1.33,12.89,0.42,-0.26,-0.13,1721744196489
-6.0,-8.33,-8.62,0.05,-0.04,0.02,1721744196498
-3.83,-11.67,6.0,-0.42,0.27,0.41,1721744196507
-7.68,-5.34,17.26,0.11,-0.15,0.69,1721744196516
3.93,-2.32,9.64,0.31,0.06,0.65,1721744196525
5.09,-5.59,-2.27,0.01,-0.14,0.4,1721744196534
7.47,-2.71,1.86,-0.27,0.18,0.05,1721744196543
3.49,1.85,10.04,0.06,0.31,-0.22,1721744196552
-0.67,-0.23,5.88,-0.12,0.23,-0.16,1721744196561
-3.27,-14.6,19.68,-0.32,0.21,-0.16,1721744196570
-3.18,-5.32,31.33,0.4,-0.07,0.15,1721744196579
-0.25,11.86,7.48,0.78,0.07,0.56,1721744196588
7.13,10.67,-10.87,-0.02,0.44,0.52,1721744196597
6.2,-4.35,1.28,-0.72,0.29,-0.06,1721744196606
0.7,-2.03,26.47,-0.14,0.13,-0.54,1721744196615
-1.41,-4.68,15.2,0.37,0.01,-0.2,1721744196624
-3.0,10.88,8.11,0.25,0.33,0.1,1721744196633
-1.08,17.5,14.3,0.25,0.29,0.43,1721744196642
0.93,6.86,8.32,0.02,0.16,0.32,1721744196651
4.61,-2.53,13.75,-0.17,0.35,-0.0,1721744196660
2.13,3.49,11.92,0.25,0.18,-0.35,1721744196669
-1.54,6.48,0.96,0.17,0.05,-0.41,1721744196678
-4.69,3.04,3.31,-0.15,0.17,-0.18,1721744196687
-4.76,-7.11,14.61,-0.16,0.16,0.04,1721744196696
-2.55,-4.28,14.26,0.15,0.01,0.39,1721744196705
1.89,1.43,5.97,0.12,0.24,0.06,1721744196714
3.76,-1.02,7.75,-0.13,-0.04,-0.23,1721744196723
1.6,-7.4,4.19,-0.14,-0.01,-0.76,1721744196732
-6.23,-12.01,0.51,-0.32,-0.14,-0.89,1721744196741
-13.88,-19.88,17.59,-0.43,0.04,-0.7,1721744196750
-15.12,-5.2,30.07,0.25,-0.37,-0.09,1721744196759
-10.18,-0.13,6.07,0.28,-0.17,0.59,1721744196768
0.02,5.57,2.18,-0.01,0.09,0.82,1721744196777
5.59,2.29,1.33,-0.17,-0.11,0.54,1721744196786
4.25,-2.32,9.62,-0.3,-0.08,-0.32,1721744196795
-0.49,5.3,19.79,-0.02,-0.48,-0.43,1721744196804
-4.76,13.48,11.58,0.34,-0.27,-0.19,1721744196813
-4.15,3.54,-3.78,-0.03,-0.44,0.32,1721744196822
-1.15,-3.1,6.61,-0.57,0.13,0.51,1721744196831
0.68,9.32,25.91,-0.08,-0.31,0.56,1721744196840
0.27,15.8,12.89,0.51,-0.47,0.3,1721744196849
4.13,-4.4,-5.32,-0.05,-0.43,0.22,1721744196858
1.28,0.88,13.78,-0.23,0.01,0.01,1721744196867
1.82,7.32,20.92,0.19,-0.27,0.16,1721744196876
-2.63,2.34,3.46,0.19,-0.52,0.23,1721744196885
1.41,-6.74,9.03,-0.17,0.11,0.23,1721744196894
0.02,1.75,20.05,0.21,-0.29,0.4,1721744196903
3.26,4.46,6.69,0.25,0.03,0.09,1721744196912
1.97,-4.86,-3.73,-0.25,-0.37,-0.1,1721744196921
1.67,-6.34,3.42,-0.43,-0.04,-0.16,1721744196930
3.38,-13.01,15.33,-0.49,-0.14,0.16,1721744196939
0.62,-1.54,11.47,0.12,0.0,0.06,1721744196948
2.82,-17.58,5.93,-0.34,0.33,-0.43,1721744196957
-7.26,-9.52,40.98,-0.02,-0.2,-0.35,1721744196966
-3.38,9.98,22.73,1.05,-0.13,0.16,1721744196975
0.76,10.35,-14.59,0.35,0.04,0.45,1721744196984
7.33,-0.37,-3.76,-0.65,0.5,0.3,1721744196993
4.5,-4.28,22.81,-0.36,0.18,-0.21,1721744197002
4.85,-9.37,19.69,0.11,-0.09,-0.56,1721744197011
2.23,1.47,8.24,0.32,0.04,-0.39,1721744197020
-1.63,11.38,6.45,0.34,0.14,-0.39,1721744197029
-2.23,16.93,4.28,0.29,0.13,-0.18,1721744197038
-3.13,6.21,3.74,-0.09,0.17,0.08,1721744197047
-0.81,-10.39,12.02,-0.62,0.26,0.17,1721744197056
-0.84,-2.95,31.11,-0.19,0.37,-0.11,1721744197065
0.82,11.15,24.06,0.57,0.03,0.03,1721744197074
1.52,7.62,0.15,0.39,-0.03,0.17,1721744197083
6.7,-0.54,10.38,-0.05,0.47,-0.21,1721744197093
3.76,0.28,11.56,0.33,-0.15,-0.48,1721744197102
0.08,4.06,-8.37,0.26,-0.05,-0.78,1721744197111
-2.6,-0.67,-0.86,-0.47,0.21,-0.64,1721744197120
-6.82,-10.72,19.29,-0.36,0.03,-0.47,1721744197129
-7.86,-21.06,17.72,0.06,0.11,-0.46,1721744197138
-7.82,-11.68,16.28,0.39,0.06,-0.26,1721744197147
-7.34,5.61,9.78,0.48,-0.05,-0.11,1721744197156
-4.19,11.33,6.15,0.22,0.0,0.05,1721744197165
0.39,9.81,2.36,0.04,-0.02,0.15,1721744197174
1.66,-8.34,-4.06,-0.34,-0.07,-0.15,1721744197183
2.47,-10.44,17.44,-0.51,0.28,-0.47,1721744197192
2.07,-3.55,34.28,0.23,-0.31,-0.35,1721744197201
-4.99,5.98,4.02,0.96,-0.02,-0.24,1721744197210
-1.83,13.53,-4.82,0.36,0.1,-0.36,1721744197219
-9.05,18.19,13.28,-0.04,-0.1,-0.14,1721744197228
-4.49,24.59,22.43,0.36,0.2,0.42,1721744197237
1.17,-7.59,-3.27,-0.48,-0.31,0.47,1721744197246
3.59,-36.34,12.11,-0.43,0.45,0.04,1721744197255
0.75,19.04,27.43,0.5,-0.12,-0.34,1721744197264
1.34,-0.04,-4.13,0.16,0.38,-0.18,1721744197273
-9.19,3.55,12.73,0.01,-0.62,0.74,1721744197282
3.55,-1.4,-7.15,0.06,0.28,0.96,1721744197291
6.44,-13.67,-14.4,-0.83,-0.09,0.59,1721744197300
8.2,-10.04,33.74,-1.16,0.63,-0.11,1721744197309
14.31,11.35,64.95,0.47,-0.73,0.02,1721744197318
-6.83,-14.05,-7.64,0.68,-0.89,0.05,1721744197327
3.71,-27.47,-13.83,-0.56,0.41,0.02,1721744197336
-6.3,0.45,19.71,-0.55,0.29,0.24,1721744197345
1.47,0.79,14.23,0.51,-0.11,0.57,1721744197354
6.39,3.9,-11.71,-0.19,0.01,0.54,1721744197363
1.73,-4.54,1.0,-0.42,0.19,0.19,1721744197372
8.13,-13.65,26.7,-0.94,0.3,-0.36,1721744197381
-3.56,-21.94,64.01,-0.28,-0.28,-0.82,1721744197390
-2.82,17.0,37.88,1.65,-0.4,-0.15,1721744197399
1.08,21.69,-39.95,0.87,0.08,0.19,1721744197408
1.11,1.24,-25.63,-0.9,0.44,-0.1,1721744197417
-10.28,1.53,41.41,-0.4,0.81,-0.78,1721744197426
-21.83,0.24,30.48,0.57,0.93,0.45,1721744197435
-3.14,2.55,-18.49,0.3,-0.16,1.04,1721744197444
8.75,-1.57,3.78,-0.97,1.35,0.78,1721744197453
12.58,-2.26,45.72,-0.46,-0.2,-0.01,1721744197462
1.21,11.3,31.06,0.79,-0.17,-0.27,1721744197471
2.31,5.29,-23.04,0.65,-0.4,-0.45,1721744197480
0.5,-10.31,-23.92,-0.66,0.5,-0.32,1721744197489
-1.96,0.41,21.64,-0.65,0.31,-0.68,1721744197498
-9.39,-10.35,19.53,0.36,-0.69,-0.44,1721744197507
-5.8,-6.49,19.09,0.22,0.19,-0.16,1721744197516
-1.66,-14.54,7.03,0.19,-0.15,0.18,1721744197525
-4.64,-4.28,10.28,-0.08,0.2,-0.01,1721744197534
2.08,4.83,12.09,0.23,-0.07,-0.34,1721744197543
-3.96,6.81,6.99,0.29,-0.5,-0.44,1721744197553
-6.77,7.89,0.96,-0.02,-0.13,-0.33,1721744197562
-6.09,-4.29,2.81,-0.24,-0.11,0.06,1721744197571
-3.34,-9.96,14.62,-0.45,0.18,0.6,1721744197580
6.19,5.48,32.74,-0.12,0.6,0.55,1721744197589
3.77,17.48,14.93,0.61,-0.36,-0.4,1721744197598
1.94,-3.51,-8.03,0.27,-0.72,-0.98,1721744197607
-6.84,-14.16,-0.91,-0.32,-0.01,-0.57,1721744197616
-7.86,11.29,25.33,0.35,0.11,0.4,1721744197625
3.13,29.41,13.92,0.47,0.7,0.86,1721744197634
2.18,10.75,-5.52,-0.08,-0.55,0.6,1721744197643
5.96,-13.5,10.89,-0.88,0.41,-0.02,1721744197652
3.75,-19.28,24.26,-0.16,-0.44,-0.31,1721744197661
-6.38,7.86,5.58,0.51,-0.01,-0.31,1721744197670
-5.58,9.97,-6.16,-0.17,-0.01,0.07,1721744197679
-4.1,-6.2,10.88,-0.66,-0.04,0.68,1721744197688
0.65,-8.98,28.6,0.04,-0.02,0.87,1721744197697
4.41,-2.43,6.86,0.37,-0.08,0.45,1721744197706
5.67,6.55,7.18,-0.18,-0.01,0.15,1721744197715
4.27,1.45,25.65,-0.25,0.06,-0.13,1721744197724
0.68,-0.59,21.79,0.27,-0.19,-0.24,1721744197733
-1.1,6.02,2.05,0.4,-0.2,-0.28,1721744197742
-3.79,1.73,-0.27,-0.1,-0.07,-0.05,1721744197751
-3.85,0.14,0.77,-0.08,-0.14,0.38,1721744197760
0.91,-4.5,3.1,-0.36,0.14,0.25,1721744197769
-0.48,6.63,24.42,-0.23,-0.06,0.0,1721744197778
-1.24,2.19,16.05,0.12,-0.15,0.06,1721744197787
1.75,-3.07,7.34,-0.03,-0.12,0.17,1721744197796
1.69,3.33,10.46,0.02,-0.0,0.07,1721744197805
5.05,3.41,7.05,-0.12,-0.08,-0.13,1721744197814
1.87,-0.64,18.5,-0.28,-0.05,-0.49,1721744197823
-2.76,8.09,13.42,0.44,-0.28,-0.5,1721744197832
-1.08,-5.85,-9.58,0.2,-0.17,-0.3,1721744197841
-3.71,-3.86,8.39,-0.42,0.28,-0.16,1721744197850
-3.57,7.49,30.22,-0.03,-0.1,-0.07,1721744197859
-6.65,5.71,5.46,0.35,-0.34,0.01,1721744197868
2.89,-7.17,-5.17,-0.1,0.09,-0.02,1721744197877
-2.2,-6.85,5.91,-0.39,-0.09,-0.12,1721744197886
-5.88,3.47,24.59,-0.24,-0.25,-0.24,1721744197895
-2.66,10.47,18.1,0.24,0.12,-0.16,1721744197904
2.34,8.88,-3.5,0.2,-0.29,-0.05,1721744197913
-1.12,-13.04,0.87,-0.64,0.17,-0.19,1721744197922
-1.87,-0.18,36.2,-0.17,-0.07,-0.23,1721744197931
-0.99,7.48,10.4,0.4,-0.19,-0.01,1721744197940
0.34,0.81,-8.39,-0.03,-0.09,-0.04,1721744197949
0.01,-0.0,5.7,-0.12,0.22,-0.37,1721744197958
1.7,0.73,10.81,-0.0,-0.11,-0.5,1721744197967
-5.17,2.26,12.02,0.05,0.07,-0.36,1721744197976
-3.33,2.57,12.73,0.11,-0.06,0.02,1721744197985
-2.06,1.29,5.33,0.1,0.03,0.14,1721744197994
2.06,-2.29,10.5,-0.25,0.13,0.03,1721744198003
0.15,4.11,17.72,0.08,-0.06,-0.37,1721744198012
1.24,-0.03,5.34,0.47,-0.32,-0.19,1721744198021
0.49,1.06,5.29,0.1,0.3,-0.31,1721744198030
-0.78,18.91,18.23,0.47,-0.01,-0.4,1721744198039
-4.55,5.15,6.21,0.27,-0.1,-0.49,1721744198048
-3.13,-17.56,7.65,-0.36,0.14,-0.19,1721744198057
-3.45,2.17,22.53,0.12,0.02,0.37,1721744198066
3.41,10.9,10.04,0.34,0.27,0.44,1721744198075
3.93,1.85,1.59,0.23,-0.22,-0.04,1721744198085
5.06,-7.42,3.28,0.22,0.28,-0.53,1721744198095
-2.21,14.31,11.56,0.24,-0.11,-0.58,1721744198104
-4.69,7.84,11.79,0.14,0.34,-0.46,1721744198113
-4.35,-12.58,6.24,-0.06,-0.17,-0.03,1721744198122
-2.84,-2.87,5.23,-0.18,0.26,0.32,1721744198131
2.29,11.79,14.99,0.07,0.23,0.37,1721744198140
3.23,12.35,7.16,-0.04,0.18,0.02,1721744198149
4.95,-10.47,1.08,-0.44,-0.09,-0.33,1721744198158
-1.28,0.73,8.34,-0.27,0.17,-0.57,1721744198167
-1.88,-0.5,-0.52,-0.3,-0.07,-0.24,1721744198176
-2.68,-16.2,6.6,-1.18,0.32,-0.01,1721744198185
-5.94,-5.4,41.65,-0.23,-0.04,-0.27,1721744198194
-4.61,1.09,14.17,0.56,-0.41,0.11,1721744198203
0.7,-4.64,-0.12,-0.5,0.29,0.53,1721744198212
-0.21,9.22,30.13,-0.29,0.22,0.14,1721744198221
1.2,2.28,14.12,0.36,-0.27,-0.38,1721744198230
2.7,3.96,-1.97,-0.08,0.05,-0.26,1721744198239
-1.88,-3.11,11.41,-0.57,0.21,-0.02,1721744198248
-1.78,-1.37,20.05,-0.07,0.02,-0.28,1721744198257
-3.66,-4.69,4.36,0.22,-0.19,-0.33,1721744198266
-4.16,4.42,3.78,-0.15,0.11,0.19,1721744198275
-1.74,1.13,11.74,-0.15,0.2,0.43,1721744198284
-1.88,-0.89,24.94,0.02,0.09,-0.09,1721744198293
0.15,5.6,17.48,0.29,-0.24,0.37,1721744198302
4.97,5.22,4.58,0.06,0.19,0.59,1721744198311
5.86,4.17,14.28,-0.22,0.19,0.13,1721744198320
2.43,1.59,3.55,0.41,-0.32,-0.5,1721744198334
1.56,0.39,-3.57,0.41,-0.19,-0.58,1721744198338
-3.6,-0.11,0.68,0.05,0.1,-0.5,1721744198347
-5.57,0.55,11.8,0.13,-0.06,-0.06,1721744198356
-4.9,-7.42,12.33,0.1,0.08,0.21,1721744198365
-1.58,10.17,13.31,0.38,-0.05,0.48,1721744198374
4.24,4.12,6.67,0.0,0.12,0.49,1721744198383
6.21,-0.21,17.61,-0.15,0.13,0.24,1721744198392
3.7,-0.78,11.5,0.36,-0.17,-0.36,1721744198401
2.51,-3.93,-3.15,0.2,-0.13,-0.38,1721744198410
-1.88,3.27,9.19,-0.12,0.15,-0.31,1721744198419
-2.98,7.81,11.53,0.37,-0.19,0.05,1721744198428
-0.9,-4.48,-8.51,0.08,-0.05,0.08,1721744198437
0.25,-7.06,10.7,-0.45,0.26,0.01,1721744198446
2.37,-1.75,23.4,-0.11,-0.33,-0.07,1721744198455
-0.44,-3.34,14.85,-0.03,0.12,0.01,1721744198464
-0.15,4.31,19.51,0.19,-0.11,-0.08,1721744198473
-1.66,5.32,2.14,0.32,-0.2,0.01,1721744198482
2.62,-7.8,-2.2,-0.21,0.09,0.09,1721744198491
1.03,-3.18,19.57,-0.28,0.11,0.11,1721744198500
1.97,12.04,24.79,0.38,0.12,-0.31,1721744198509
0.4,6.51,-4.58,0.27,-0.42,-0.2,1721744198518
-1.36,-10.31,8.66,-0.63,0.4,-0.27,1721744198527
-3.25,-1.76,32.11,-0.19,-0.17,0.09,1721744198536
-0.46,1.4,6.03,0.44,-0.08,0.07,1721744198545
4.69,-2.48,-4.73,-0.29,0.02,0.26,1721744198554
0.86,9.3,15.65,-0.09,0.35,-0.11,1721744198563
5.24,-2.92,11.85,0.14,0.01,-0.49,1721744198572
-2.81,6.18,7.35,0.21,-0.12,-0.63,1721744198581
-4.91,-0.2,8.59,0.12,0.03,-0.3,1721744198590
-5.63,4.7,14.41,0.01,0.04,0.17,1721744198599
-0.01,5.54,10.62,0.07,0.1,0.49,1721744198608
5.19,-0.83,9.65,-0.02,0.05,0.22,1721744198617
5.81,-0.87,13.41,0.01,0.09,-0.35,1721744198626
1.73,8.63,6.13,0.21,-0.15,-0.84,1721744198635
-3.53,6.13,2.38,0.06,-0.07,-0.75,1721744198644
-6.03,-7.73,8.87,-0.33,0.09,-0.29,1721744198653
-6.1,-12.33,24.87,-0.33,0.15,-0.06,1721744198662
-3.7,0.91,22.97,0.34,-0.09,0.18,1721744198671
1.65,3.46,3.34,0.16,0.07,0.25,1721744198680
2.92,11.1,16.94,-0.11,0.3,-0.01,1721744198689
3.26,22.35,15.76,0.55,-0.03,-0.11,1721744198698
3.96,-2.38,-10.64,0.14,-0.04,-0.28,1721744198707
3.08,-20.94,1.66,-0.59,0.45,-0.71,1721744198716
-3.86,0.91,20.08,0.1,-0.16,-0.77,1721744198725
2.13,9.08,3.68,0.25,-0.16,-0.26,1721744198734
-8.36,-1.73,1.23,-0.32,0.24,0.1,1721744198743
-0.86,-0.27,20.07,-0.13,0.23,0.29,1721744198752
1.58,-5.08,10.44,-0.01,0.05,0.15,1721744198761
4.3,-4.55,13.54,-0.11,0.15,-0.06,1721744198770
2.29,1.74,12.27,0.08,0.06,-0.38,1721744198779
-1.34,4.36,9.34,0.13,0.03,-0.51,1721744198788
-3.25,2.51,17.02,0.14,0.13,-0.39,1721744198797
-4.14,2.77,11.91,0.25,-0.07,0.12,1721744198806
0.01,3.83,-0.16,0.06,0.25,0.22,1721744198815
3.06,-5.49,4.19,-0.33,0.22,-0.03,1721744198824
1.46,9.14,13.94,0.29,0.15,-0.44,1721744198833
0.76,-11.59,7.18,-0.14,0.01,-0.53,1721744198842
-7.58,-1.87,36.49,-0.07,0.06,-0.48,1721744198851
-4.47,8.97,17.24,0.86,-0.23,0.07,1721744198860
-0.13,1.88,-6.72,0.03,0.26,0.27,1721744198869
3.9,5.45,14.64,-0.2,0.53,0.21,1721744198878
3.82,8.02,8.2,0.61,-0.01,-0.24,1721744198887
3.4,-10.96,-6.64,0.16,0.05,-0.7,1721744198896
-1.08,-0.79,14.16,-0.13,0.29,-0.68,1721744198905
-8.84,5.37,19.61,0.49,-0.15,-0.09,1721744198914
-6.96,12.61,3.21,0.38,0.2,0.44,1721744198923
4.85,11.36,3.77,-0.08,0.54,0.61,1721744198932
6.75,-6.51,1.95,-0.3,0.2,0.09,1721744198941
6.66,-14.16,10.59,-0.2,0.23,-0.79,1721744198950
-2.43,-6.19,13.18,0.07,-0.13,-1.07,1721744198959
-8.89,3.53,10.59,0.17,0.07,-0.59,1721744198968
-9.07,-0.72,15.33,0.12,0.22,0.13,1721744198977
-5.47,14.43,14.64,0.37,0.15,0.73,1721744198986
3.41,11.38,4.49,0.01,0.5,0.63,1721744198995
8.71,-5.92,11.27,-0.42,0.29,0.31,1721744199004
7.6,-20.06,16.7,-0.18,0.23,-0.49,1721744199013
1.55,6.49,15.06,0.37,-0.05,-0.88,1721744199022
-4.84,19.5,2.45,0.4,0.11,-0.67,1721744199031
-8.07,0.64,-0.36,-0.28,-0.12,0.08,1721744199040
-1.38,-9.95,10.88,-0.34,0.56,0.28,1721744199049
-0.41,-3.72,8.16,-0.16,0.01,0.13,1721744199058
0.5,3.43,4.92,-0.32,0.36,-0.29,1721744199067
-0.91,-9.87,16.47,-0.5,0.18,-0.31,1721744199076
-6.93,-1.05,27.0,0.05,-0.08,-0.02,1721744199085
-1.16,3.24,7.85,0.34,0.24,0.44,1721744199095
3.17,8.18,-0.11,-0.02,0.28,0.34,1721744199104
3.21,12.21,3.19,-0.2,0.25,-0.01,1721744199113
2.62,4.63,-0.23,-0.29,0.12,-0.2,1721744199122
0.58,-13.14,2.46,-0.69,0.14,-0.4,1721744199131
-5.27,-14.38,20.24,-0.71,0.01,-0.33,1721744199140
-8.07,0.3,41.89,-0.12,0.1,0.03,1721744199149
-3.77,10.9,19.06,0.54,0.07,0.55,1721744199158
1.6,2.1,-11.2,-0.22,0.12,0.85,1721744199167
6.3,-13.97,11.3,-1.03,0.67,0.36,1721744199176
4.65,9.57,37.63,0.1,-0.41,-0.03,1721744199185
-0.42,11.22,0.31,0.58,0.28,-0.32,1721744199194
0.96,-4.07,-6.81,-0.4,-0.19,-0.16,1721744199203
-11.02,1.61,25.63,-0.45,0.33,-0.05,1721744199212
-0.81,12.41,14.99,0.5,-0.04,0.31,1721744199221
0.67,2.36,-11.35,0.11,-0.18,0.75,1721744199230
8.1,-10.55,6.57,-0.47,0.57,0.44,1721744199239
4.88,-4.17,17.5,-0.05,-0.21,-0.14,1721744199248
0.84,2.78,9.92,0.26,-0.03,-0.59,1721744199257
-6.01,0.9,8.46,-0.12,-0.23,-0.37,1721744199266
-8.32,7.73,19.71,0.12,0.04,0.21,1721744199275
-2.24,3.02,2.92,0.28,-0.03,0.82,1721744199284
3.73,-4.84,5.88,-0.3,0.33,0.79,1721744199293
4.91,2.13,24.52,-0.1,0.18,0.24,1721744199302
2.58,4.82,12.88,0.37,-0.25,-0.09,1721744199311
1.69,1.02,4.88,0.1,-0.01,-0.26,1721744199320
-3.67,7.22,4.86,0.28,-0.16,0.04,1721744199329
0.14,7.92,4.41,0.24,0.21,0.2,1721744199338
0.65,3.11,12.76,-0.15,0.07,0.25,1721744199347
1.16,-6.73,16.48,-0.16,-0.05,0.09,1721744199356
0.57,-7.16,10.4,0.01,-0.15,-0.06,1721744199365
-1.82,3.79,11.54,0.06,-0.03,-0.02,1721744199374
-1.07,1.5,7.18,0.08,-0.12,0.23,1721744199383
0.41,-2.37,7.12,0.07,-0.03,0.22,1721744199392
1.32,14.41,8.64,0.39,-0.02,0.25,1721744199401
3.29,0.17,-2.69,-0.07,-0.03,0.1,1721744199410
-1.5,-11.83,14.4,-0.5,0.13,-0.28,1721744199419
-5.47,-5.91,24.65,0.3,-0.3,-0.26,1721744199428
-4.74,4.42,2.94,0.65,-0.19,0.29,1721744199437
0.68,4.53,-0.83,0.01,0.22,0.64,1721744199446
2.78,11.39,21.61,0.05,0.07,0.26,1721744199455
3.09,6.95,10.05,0.35,-0.42,0.01,1721744199464
4.53,-9.05,-0.53,-0.22,0.02,-0.2,1721744199473
-0.58,-7.69,21.54,-0.24,-0.07,-0.33,1721744199482
-3.69,10.35,27.83,0.39,-0.17,-0.37,1721744199491
-6.45,2.29,2.71,0.36,-0.37,-0.06,1721744199500
-0.71,-3.45,-1.22,-0.13,0.13,0.41,1721744199509
0.86,-1.84,7.18,-0.11,-0.03,0.54,1721744199518
5.74,1.98,13.13,-0.11,0.19,-0.14,1721744199527
0.02,4.72,17.33,0.25,-0.41,-0.58,1721744199536
-2.35,5.73,3.02,0.3,-0.26,-0.32,1721744199545
-3.1,-6.44,7.62,-0.18,0.03,0.13,1721744199554
-2.67,1.86,20.57,0.03,-0.1,0.29,1721744199563
0.85,14.79,9.34,0.49,-0.03,0.12,1721744199572
3.61,4.38,-5.27,-0.05,-0.01,0.05,1721744199581
3.47,0.66,2.92,-0.27,0.12,-0.2,1721744199590
2.19,-7.68,-0.43,-0.43,-0.26,-0.36,1721744199599
-1.99,-7.85,14.78,-0.67,0.17,-0.59,1721744199608
-6.11,2.15,30.63,0.17,-0.28,-0.34,1721744199617
-4.52,-1.5,-1.08,0.24,-0.24,0.27,1721744199626
2.56,-7.26,4.5,-0.76,0.41,0.51,1721744199635
-0.49,1.96,39.31,-0.12,0.03,-0.11,1721744199644
-1.65,9.33,16.69,0.9,-0.63,-0.41,1721744199653
0.25,-2.51,-9.91,0.04,0.02,-0.35,1721744199662
-2.06,-1.75,13.65,-0.43,0.07,-0.08,1721744199671
-1.84,4.66,21.1,0.39,-0.18,-0.03,1721744199680
-0.69,9.82,-1.47,0.38,-0.25,0.11,1721744199689
3.7,6.91,-8.58,-0.03,0.18,0.23,1721744199698
3.06,-14.47,3.26,-0.69,0.03,-0.23,1721744199707
-0.9,-8.73,34.01,-0.3,-0.08,-0.39,1721744199716
-1.38,7.11,23.76,0.66,-0.11,-0.09,1721744199725
-0.93,-1.95,-4.02,0.04,-0.13,0.0,1721744199734
-1.64,-2.52,14.3,-0.38,0.19,0.22,1721744199743
2.86,-6.24,19.99,0.0,-0.11,0.3,1721744199752
2.38,9.59,16.21,0.31,-0.08,-0.41,1721744199761
-1.22,15.24,9.2,0.5,-0.15,-0.48,1721744199770
-2.61,2.79,-4.85,0.09,-0.08,-0.07,1721744199779
-1.53,-6.17,2.26,-0.3,0.2,0.13,1721744199788
0.99,-3.91,15.42,-0.0,-0.0,0.19,1721744199797
2.59,-2.36,7.82,0.09,0.02,-0.24,1721744199806
1.26,8.49,15.47,0.06,0.0,-0.37,1721744199815
-1.6,9.27,7.2,0.25,-0.13,-0.26,1721744199824
-0.12,9.83,-7.33,0.29,0.06,-0.23,1721744199833
-1.31,-15.22,0.38,-0.65,0.06,-0.41,1721744199842
-7.13,-10.42,41.05,-0.45,-0.14,-0.39,1721744199851
-4.81,9.83,20.38,1.0,-0.28,0.14,1721744199860
0.68,-5.95,-17.84,-0.1,-0.12,0.27,1721744199869
3.47,3.79,26.05,-0.71,0.75,0.08,1721744199878
6.48,7.58,29.37,0.39,-0.39,0.18,1721744199887
4.58,-6.4,-12.66,0.18,-0.23,-0.31,1721744199896
0.48,3.67,9.83,-0.26,0.59,-0.61,1721744199905
-1.26,5.34,3.16,0.16,-0.64,-0.38,1721744199914
-8.34,-13.6,5.6,-0.58,0.46,-0.39,1721744199923
-5.77,-4.18,37.05,-0.07,-0.26,0.02,1721744199932
-2.86,-3.74,2.27,0.49,-0.13,0.38,1721744199941
4.74,0.61,9.81,-0.34,0.49,0.19,1721744199950
0.47,16.6,26.59,0.41,-0.09,-0.03,1721744199959
2.01,12.52,-7.81,0.48,-0.14,-0.19,1721744199968
6.12,-7.66,-1.28,-0.58,0.49,-0.44,1721744199977
-6.11,-15.94,21.23,-0.11,-0.37,-0.56,1721744199986
-3.73,-4.5,13.75,0.28,0.17,-0.3,1721744199995
-6.28,8.7,6.23,0.05,-0.11,0.13,1721744200004
-0.83,4.74,10.26,-0.07,0.34,0.44,1721744200013
4.01,0.47,14.0,-0.1,0.15,0.27,1721744200022
3.91,-2.72,16.77,0.01,0.08,-0.24,1721744200031
2.33,-1.1,13.76,0.13,-0.07,-0.48,1721744200040
-1.39,6.91,9.06,0.03,0.05,-0.38,1721744200049
-4.73,20.39,19.88,0.25,0.21,-0.24,1721744200058
-2.69,-7.68,-3.03,0.09,-0.1,0.12,1721744200067
0.98,-22.19,1.78,-0.47,0.44,-0.11,1721744200076
-3.16,1.64,26.36,0.04,0.11,-0.14,1721744200085
-1.91,13.33,7.23,0.71,0.27,0.2,1721744200095
-0.05,9.92,-17.06,0.21,-0.29,0.28,1721744200104
6.17,-10.71,4.3,-0.73,0.83,-0.3,1721744200113
-0.69,-15.91,26.61,-0.45,-0.57,-0.6,1721744200122
-5.13,-9.53,29.77,0.27,0.2,-0.68,1721744200131
-7.26,15.78,16.46,0.62,-0.21,0.12,1721744200140
-3.38,23.1,-5.72,0.38,0.3,0.55,1721744200149
7.36,-5.05,-3.1,-0.51,0.41,0.48,1721744200159
5.31,-15.42,14.83,-0.31,0.11,-0.3,1721744200169
2.3,-5.03,12.68,0.17,-0.04,-0.83,1721744200178
-6.02,10.29,10.47,0.22,0.01,-0.68,1721744200187
-7.58,8.06,7.52,0.1,0.14,-0.03,1721744200196
-2.02,0.47,3.04,-0.09,0.11,0.5,1721744200205
2.31,-19.43,19.6,-0.58,0.41,0.4,1721744200214
2.41,-6.69,41.37,0.02,-0.02,-0.08,1721744200223
2.77,21.66,-0.31,1.2,-0.32,0.05,1721744200232
4.69,10.02,-21.86,-0.21,0.46,-0.3,1721744200241
-1.41,6.6,16.72,-0.46,0.37,-0.45,1721744200250
-0.72,-5.54,25.35,0.08,-0.16,-0.51,1721744200259
-6.48,-18.26,8.48,-0.05,0.06,-0.29,1721744200268
-5.97,8.41,17.36,0.2,0.31,0.23,1721744200277
0.17,4.83,-7.52,0.08,0.16,0.65,1721744200286
4.59,-5.09,3.75,-0.28,0.47,0.33,1721744200295
0.75,7.64,20.41,0.62,-0.25,-0.21,1721744200304
-2.24,11.57,9.79,0.46,0.48,-0.52,1721744200313
-0.86,0.21,9.07,-0.35,-0.13,0.12,1721744200322
0.96,-11.07,18.97,-0.05,-0.02,0.42,1721744200336
4.41,-3.5,16.59,0.21,0.31,0.21,1721744200340
2.53,-0.4,0.82,0.3,-0.04,-0.25,1721744200349
1.09,10.59,6.51,0.09,0.14,-0.23,1721744200358
-2.87,6.8,7.18,0.02,0.02,-0.18,1721744200367
-4.04,1.99,9.69,-0.15,0.13,-0.14,1721744200376
-3.6,-5.38,13.54,-0.16,0.18,-0.01,1721744200385
-4.14,-1.14,6.13,0.05,-0.05,0.4,1721744200394
1.53,-3.59,4.07,-0.37,0.33,0.42,1721744200403
1.28,-0.15,26.18,-0.07,0.12,0.15,1721744200412
1.62,2.78,16.31,0.39,-0.12,0.0,1721744200421
1.49,4.39,0.62,-0.01,0.09,-0.19,1721744200430
-3.17,4.29,9.64,-0.18,0.09,-0.14,1721744200439
-2.94,11.63,-1.38,0.35,-0.14,0.28,1721744200448
2.9,-4.22,-16.63,-0.4,0.19,0.38,1721744200457
2.38,-11.43,18.36,-0.99,0.37,-0.0,1721744200466
4.11,-4.89,47.34,0.04,-0.55,-0.19,1721744200475
-6.85,-3.52,19.8,0.52,-0.2,-0.23,1721744200484
-1.29,7.5,5.64,0.2,0.04,0.52,1721744200493
-1.05,12.83,-6.43,-0.13,0.18,0.69,1721744200502
5.74,-0.88,3.81,-0.29,0.28,0.3,1721744200511
2.21,-8.81,11.8,-0.4,-0.08,-0.18,1721744200520
-3.03,-11.81,23.98,-0.14,-0.01,-0.44,1721744200529
-7.36,3.6,20.25,0.38,-0.37,0.04,1721744200538
-4.88,5.85,3.92,0.15,0.01,0.81,1721744200547
3.03,7.95,14.51,-0.12,0.34,0.93,1721744200556
7.48,5.66,14.77,0.14,0.08,0.54,1721744200565
7.59,-4.31,5.83,-0.04,-0.08,-0.27,1721744200574
-0.73,1.11,9.99,0.04,-0.15,-0.61,1721744200583
-6.02,4.84,4.23,0.19,-0.17,-0.26,1721744200592
-5.22,-5.54,7.61,-0.29,0.07,0.35,1721744200601
-3.35,-1.96,22.01,0.02,-0.05,0.67,1721744200610
2.94,4.4,9.39,0.27,-0.06,0.59,1721744200619
5.43,3.99,7.84,-0.04,0.01,0.33,1721744200628
3.57,7.35,11.35,0.08,-0.1,-0.08,1721744200637
1.18,4.53,1.2,0.18,-0.22,-0.28,1721744200646
-1.75,-3.75,4.72,-0.21,0.01,-0.21,1721744200655
-3.47,-4.62,15.92,-0.08,-0.11,0.04,1721744200664
-2.05,0.43,13.53,0.1,-0.09,0.23,1721744200673
0.48,6.91,10.15,0.04,-0.07,0.28,1721744200682
1.96,6.3,8.7,-0.04,-0.01,0.13,1721744200691
3.09,-4.2,5.1,-0.11,-0.14,-0.07,1721744200700
2.49,-10.41,3.45,-0.2,-0.05,-0.28,1721744200709
-2.43,-4.45,19.71,-0.15,-0.06,-0.4,1721744200718
-6.07,4.9,19.52,0.35,-0.26,-0.19,1721744200727
-4.79,4.67,5.66,0.29,-0.13,0.24,1721744200736
0.01,-2.17,5.77,-0.12,0.09,0.56,1721744200745
3.53,-1.85,18.39,-0.05,0.13,0.29,1721744200754
3.91,1.68,11.04,0.32,-0.29,-0.14,1721744200763
1.79,7.7,1.09,0.18,-0.14,-0.41,1721744200772
-0.68,3.29,6.75,-0.07,-0.08,-0.24,1721744200781
-2.79,0.69,17.85,-0.02,-0.01,-0.05,1721744200790
-0.49,-6.0,11.54,0.08,-0.16,0.18,1721744200799
0.53,-2.13,10.86,0.02,0.03,0.04,1721744200808
0.86,6.28,9.99,0.14,-0.16,0.03,1721744200817
1.12,3.69,6.27,0.01,0.01,-0.12,1721744200826
-0.8,2.03,10.83,0.07,-0.03,-0.19,1721744200835
-2.3,-1.91,5.76,0.08,-0.12,-0.22,1721744200844
-3.0,0.15,11.82,-0.18,-0.0,-0.02,1721744200853
-2.05,3.31,24.81,0.12,0.02,0.12,1721744200862
2.06,12.07,6.16,0.48,-0.26,0.35,1721744200871
7.2,2.89,-6.35,-0.14,0.21,0.03,1721744200880
6.99,-4.77,11.11,-0.47,0.01,-0.62,1721744200889
-1.53,-5.53,14.37,0.03,-0.29,-0.83,1721744200898
-6.94,3.37,5.25,0.12,-0.09,-0.58,1721744200907
-7.32,6.29,2.81,-0.07,-0.03,0.09,1721744200916
-1.87,-1.37,7.44,-0.45,0.19,0.46,1721744200925
2.82,-2.26,16.39,-0.21,0.13,0.21,1721744200934
4.22,-7.49,11.58,-0.16,-0.07,-0.29,1721744200943
0.54,-3.48,20.44,-0.07,-0.01,-0.63,1721744200952
-3.21,9.04,21.96,0.52,-0.08,-0.44,1721744200961
-2.49,10.06,-3.12,0.33,-0.03,0.04,1721744200970
1.7,0.98,-2.65,-0.49,0.37,0.13,1721744200979
0.09,-4.41,21.17,-0.2,0.09,-0.14,1721744200988
1.14,-7.69,16.7,0.23,-0.03,-0.43,1721744200997
-1.08,0.26,2.15,0.04,-0.03,-0.35,1721744201006
-2.4,-4.66,3.33,-0.26,0.14,-0.19,1721744201015
-2.95,-1.84,20.33,-0.03,0.11,-0.06,1721744201024
-1.23,2.82,19.93,0.37,0.02,0.04,1721744201033
0.39,8.44,8.99,0.34,0.04,0.04,1721744201042
2.18,-0.62,7.81,-0.08,0.18,-0.15,1721744201051
0.07,6.55,13.53,0.2,0.07,-0.3,1721744201060
-0.08,5.22,2.02,0.3,0.06,-0.31,1721744201069
-1.61,-2.61,6.79,-0.05,0.19,-0.18,1721744201078
-1.35,-3.08,13.62,0.09,0.12,-0.05,1721744201087
-1.04,1.36,11.53,0.16,0.12,-0.16,1721744201097
-2.15,8.22,9.94,0.22,0.03,-0.08,1721744201106
0.47,3.71,1.67,0.05,0.17,0.05,1721744201115
1.18,-6.7,10.06,-0.22,0.24,-0.12,1721744201124
-0.46,0.11,23.82,0.24,0.05,-0.25,1721744201133
-0.37,3.28,13.83,0.39,0.05,-0.12,1721744201142
-0.97,6.99,8.29,0.09,0.2,-0.04,1721744201151
-0.57,2.98,11.28,0.06,0.22,-0.05,1721744201160
-0.25,1.4,7.92,0.17,0.17,-0.15,1721744201169
-0.38,7.39,0.67,0.3,0.17,-0.2,1721744201178
-0.6,-2.24,-9.3,-0.14,0.08,-0.23,1721744201187
-1.96,-11.21,3.01,-0.75,0.32,-0.24,1721744201196
-6.29,-3.68,20.66,-0.23,-0.17,-0.14,1721744201205
-2.78,0.54,14.79,0.35,0.15,0.02,1721744201214
0.45,2.33,-1.61,-0.09,-0.01,0.26,1721744201223
0.47,2.01,13.41,-0.44,0.39,-0.09,1721744201232
-0.62,-5.56,21.09,0.01,-0.09,-0.37,1721744201241
-3.54,2.88,12.28,0.31,0.02,-0.28,1721744201251
-2.61,10.57,1.91,0.14,0.1,0.25,1721744201261
1.76,-5.11,2.37,-0.47,0.3,0.25,1721744201270
1.66,-6.64,22.38,-0.28,0.16,-0.09,1721744201279
0.0,-2.83,10.34,0.21,-0.11,-0.16,1721744201288
-0.57,-0.31,3.85,-0.22,0.22,-0.1,1721744201297
-3.13,-1.37,14.58,-0.32,0.07,0.03,1721744201306
-2.64,-1.99,18.42,-0.02,0.08,0.13,1721744201315
-1.37,0.45,12.94,0.01,0.03,0.29,1721744201324
-0.17,1.86,12.4,-0.02,0.12,0.3,1721744201333
1.76,-1.69,13.63,-0.02,0.1,0.09,1721744201342
-0.25,3.65,13.71,0.16,0.04,-0.01,1721744201351
-0.19,10.02,7.34,0.25,0.02,0.04,1721744201360
-0.55,6.83,4.52,0.08,0.02,0.2,1721744201369
0.77,-0.18,2.45,-0.02,0.07,0.14,1721744201378
0.77,-5.02,5.01,-0.22,0.09,-0.08,1721744201387
-1.94,-0.18,13.11,-0.09,-0.04,-0.09,1721744201396
-2.49,7.45,7.65,0.25,-0.05,0.1,1721744201405
-0.75,3.17,3.4,-0.29,-0.02,0.33,1721744201414
-0.95,-4.72,24.31,-0.57,0.09,0.19,1721744201423
-2.03,-2.65,27.49,0.12,-0.19,0.02,1721744201432
-0.5,-6.23,4.64,0.1,-0.14,0.19,1721744201441
-1.09,-0.43,7.55,-0.16,0.12,0.2,1721744201450
0.21,0.94,9.16,0.14,-0.12,0.18,1721744201459
-0.34,0.39,4.42,0.2,-0.12,0.04,1721744201468
-1.09,7.43,11.09,0.21,-0.06,0.08,1721744201477
-0.85,12.49,11.0,0.23,-0.11,0.17,1721744201486
2.06,9.3,3.38,-0.09,0.05,0.25,1721744201495
3.42,0.62,4.18,-0.4,0.02,0.09,1721744201504
2.33,-5.21,7.53,-0.23,-0.09,-0.15,1721744201513
0.96,-4.34,1.64,-0.15,-0.14,-0.24,1721744201522
-1.66,-8.56,8.81,-0.44,0.03,-0.24,1721744201531
-5.52,1.62,27.42,0.0,-0.17,-0.12,1721744201540
-4.47,4.07,13.23,0.3,-0.22,0.28,1721744201549
-0.67,1.99,2.9,-0.13,0.0,0.51,1721744201558
2.21,0.81,11.72,-0.25,0.09,0.4,1721744201567
3.85,-5.05,10.85,-0.15,-0.08,-0.03,1721744201576
-0.2,-9.54,20.07,-0.14,-0.1,-0.43,1721744201585
-6.93,2.21,26.28,0.54,-0.38,-0.3,1721744201594
-7.34,11.33,1.46,0.82,-0.27,0.22,1721744201603
-0.47,11.84,-10.42,0.12,-0.01,0.74,1721744201612
4.26,7.37,3.85,-0.26,0.14,0.82,1721744201621
9.98,-1.59,11.8,-0.21,0.01,0.27,1721744201630
7.05,-3.74,15.78,-0.04,-0.31,-0.4,1721744201639
-0.75,-6.61,11.23,0.02,-0.36,-0.82,1721744201648
-9.38,0.41,18.17,0.11,-0.53,-0.51,1721744201657
-12.12,3.94,18.74,0.36,-0.18,0.35,1721744201666
-4.87,9.37,12.05,0.27,-0.11,1.32,1721744201675
6.51,5.2,5.0,0.1,0.24,1.4,1721744201684
13.38,-4.31,5.52,-0.13,0.11,0.52,1721744201693
8.65,-0.35,12.88,0.05,-0.29,-0.59,1721744201702
-0.06,6.35,14.3,0.39,-0.47,-1.04,1721744201711
-6.84,7.83,6.46,0.41,-0.49,-0.34,1721744201720
-7.05,1.36,0.96,-0.13,0.02,0.4,1721744201729
-0.24,-0.41,7.83,-0.19,0.01,0.84,1721744201738
6.78,-2.23,5.96,-0.23,0.04,0.54,1721744201747
7.47,1.1,12.82,-0.09,-0.11,-0.23,1721744201756
0.86,4.24,7.28,0.14,-0.46,-0.68,1721744201765
-3.11,-0.26,-0.15,-0.2,-0.2,-0.46,1721744201774
-5.8,-5.21,15.18,-0.5,-0.03,0.16,1721744201783
-1.83,-5.82,18.47,-0.11,-0.19,0.59,1721744201793
4.45,-6.93,11.38,-0.05,0.01,0.32,1721744201802
3.23,1.77,13.12,0.21,-0.27,-0.14,1721744201811
1.93,4.36,4.19,0.19,-0.24,-0.38,1721744201820
-2.02,4.16,5.13,-0.04,-0.18,-0.31,1721744201829
-2.78,-3.36,6.38,-0.22,-0.18,-0.02,1721744201838
-2.21,-6.95,12.68,-0.24,-0.07,0.09,1721744201847
-1.87,0.07,18.31,0.24,-0.2,0.03,1721744201856
-1.88,6.27,7.04,0.36,-0.37,0.03,1721744201865
-0.58,3.38,4.43,-0.15,-0.17,0.22,1721744201874
1.24,0.37,17.88,-0.18,-0.1,0.37,1721744201883
4.15,-5.64,19.79,-0.0,-0.11,0.12,1721744201892
2.93,5.63,16.12,0.3,-0.29,-0.17,1721744201901
1.11,6.07,2.84,0.27,-0.26,-0.35,1721744201910
-2.47,3.57,3.15,0.02,-0.19,-0.22,1721744201919
-2.46,-3.09,10.82,-0.05,-0.08,0.02,1721744201928
-0.68,-0.99,15.16,0.1,-0.14,0.28,1721744201937
2.83,6.14,16.51,0.1,-0.08,0.16,1721744201946
2.6,17.55,15.93,0.37,-0.19,-0.13,1721744201955
3.23,4.95,-2.11,0.17,-0.24,-0.25,1721744201964
2.98,-5.71,1.53,-0.39,0.14,-0.29,1721744201973
0.05,-2.96,14.9,-0.16,-0.13,-0.34,1721744201982
-0.49,-3.34,8.16,0.02,-0.09,-0.44,1721744201991
-3.38,3.84,8.63,0.05,-0.18,-0.37,1721744202000
-1.81,2.57,1.95,-0.03,0.05,-0.1,1721744202009
1.09,2.62,3.82,-0.27,-0.0,0.03,1721744202018
4.12,1.28,13.76,-0.31,0.22,-0.21,1721744202027
4.53,-3.34,18.17,-0.19,0.01,-0.59,1721744202036
1.14,-3.49,14.35,-0.1,-0.04,-0.89,1721744202045
-4.21,-1.47,11.25,-0.02,-0.11,-0.9,1721744202054
-7.24,1.28,8.12,0.06,0.0,-0.5,1721744202063
-3.78,-7.79,3.64,-0.26,0.09,-0.1,1721744202072
-1.42,-3.17,12.29,-0.13,0.17,-0.04,1721744202081
3.06,1.22,11.46,0.21,0.18,-0.32,1721744202090
1.63,12.3,7.15,0.06,0.02,-0.64,1721744202100
-1.79,11.55,9.64,-0.11,0.1,-0.62,1721744202109
-0.77,-10.03,13.11,-0.6,0.1,-0.34,1721744202118
-2.21,-13.13,33.83,-0.4,0.24,-0.28,1721744202127
-0.61,-2.37,22.4,0.53,-0.11,-0.39,1721744202136
-0.23,3.0,-2.89,0.32,0.02,-0.66,1721744202145
-4.59,8.71,6.18,0.03,0.21,-0.59,1721744202154
-3.69,13.67,8.32,0.26,0.18,-0.25,1721744202163
0.36,6.62,0.35,-0.07,0.21,0.06,1721744202172
4.86,-1.12,7.35,-0.43,0.53,-0.11,1721744202181
5.5,-12.76,12.56,-0.39,0.2,-0.66,1721744202190
-2.67,-1.9,15.36,0.11,0.01,-1.2,1721744202199
-9.83,4.37,10.45,0.4,-0.05,-1.0,1721744202208
-11.15,7.35,7.37,0.05,0.23,-0.06,1721744202217
-4.58,2.39,15.36,-0.1,0.27,0.83,1721744202226
7.83,-1.7,7.75,-0.01,0.54,0.84,1721744202235
13.85,-3.3,-2.06,-0.16,0.55,-0.19,1721744202244
7.49,1.41,4.78,-0.09,0.23,-1.53,1721744202253
-4.73,9.69,14.46,0.28,-0.39,-1.78,1721744202262
-18.12,4.71,11.51,0.07,0.04,-0.83,1721744202271
-13.93,-8.67,18.89,-0.41,0.29,0.73,1721744202280
-4.3,-13.78,28.24,-0.17,0.58,1.58,1721744202289
9.73,-2.35,18.78,0.41,0.62,1.23,1721744202298
12.05,15.25,1.72,0.55,0.3,-0.12,1721744202307
6.41,20.74,-5.99,0.43,-0.05,-0.9,1721744202316
1.16,1.31,-4.44,-0.24,-0.03,-0.71,1721744202325
-5.38,-15.58,27.67,-0.42,0.32,-0.03,1721744202339
-5.26,-12.44,32.5,-0.08,0.18,0.11,1721744202343
-4.2,5.01,21.7,0.63,0.04,0.34,1721744202352
0.78,10.76,-5.77,0.48,0.11,0.36,1721744202361
3.31,6.74,-8.94,-0.14,0.24,0.48,1721744202370
6.03,-3.24,7.1,-0.39,0.5,0.09,1721744202379
2.36,0.05,19.76,-0.09,0.04,-0.21,1721744202388
1.23,-8.05,11.15,0.06,0.19,-0.38,1721744202397
-4.62,-0.4,13.4,0.12,0.12,-0.26,1721744202406
-6.85,6.28,7.45,0.42,0.08,-0.07,1721744202415
-5.52,9.08,-3.91,0.25,0.12,0.33,1721744202424
0.84,-3.25,4.59,-0.64,0.47,0.75,1721744202433
3.98,-4.65,28.97,-0.42,0.45,0.53,1721744202442
3.05,0.29,21.41,0.55,-0.23,-0.08,1721744202451
3.58,-5.97,-9.92,0.2,-0.21,-0.22,1721744202460
-1.23,2.21,5.19,-0.31,0.41,-0.12,1721744202469
-3.16,7.2,18.62,0.15,-0.03,0.05,1721744202478
-4.49,-6.46,9.79,-0.12,0.14,0.07,1721744202487
-1.41,4.43,25.74,0.11,0.16,0.26,1721744202496
-0.51,-1.01,8.93,0.33,-0.05,0.48,1721744202505
3.3,3.71,5.35,0.06,0.26,0.24,1721744202514
0.94,2.84,5.74,0.16,-0.1,-0.02,1721744202523
-0.53,-0.03,6.94,0.15,0.13,-0.09,1721744202532
-0.85,-2.46,5.31,0.05,-0.04,0.24,1721744202541
-1.23,5.87,10.34,0.05,0.09,0.32,1721744202550
1.46,3.1,11.77,0.08,-0.01,0.2,1721744202559
0.48,1.9,12.16,0.07,-0.1,0.15,1721744202568
1.39,2.63,7.11,0.11,-0.07,0.29,1721744202577
4.06,-0.92,4.0,-0.18,0.12,0.16,1721744202586
1.02,0.67,15.31,-0.11,-0.01,-0.23,1721744202595
-2.61,5.27,17.57,0.21,-0.16,-0.3,1721744202604
-3.98,3.06,11.43,0.06,-0.08,0.14,1721744202613
-1.76,-0.5,11.04,-0.15,0.07,0.54,1721744202622
3.27,-2.38,7.03,-0.09,0.06,0.45,1721744202631
5.15,-3.13,0.04,-0.12,0.0,-0.09,1721744202640
2.43,-3.81,4.09,-0.37,-0.03,-0.41,1721744202649
-4.07,4.4,19.0,0.0,-0.13,-0.39,1721744202658
-4.09,3.12,10.52,0.09,-0.03,0.02,1721744202667
-1.22,2.52,10.95,-0.21,-0.03,0.36,1721744202676
2.4,-6.95,16.58,-0.4,0.12,0.21,1721744202685
1.92,0.24,17.3,0.16,-0.13,-0.19,1721744202694
0.95,-2.92,-3.32,0.13,-0.18,-0.43,1721744202703
-4.76,6.31,-0.85,-0.21,0.02,-0.34,1721744202712
-3.5,5.5,6.53,-0.24,0.04,0.13,1721744202721
-0.73,-2.64,9.9,-0.45,0.03,0.46,1721744202730
4.62,-4.74,21.74,-0.43,0.2,0.29,1721744202739
4.96,-5.04,17.6,-0.05,-0.21,-0.1,1721744202748
2.59,0.4,5.46,0.05,-0.11,-0.49,1721744202757
-2.16,-4.12,8.33,-0.3,-0.06,-0.7,1721744202766
-9.47,4.26,23.5,0.11,-0.16,-0.37,1721744202775
-6.34,2.98,14.84,0.23,0.12,0.19,1721744202784
-0.55,8.13,11.14,0.02,0.09,0.72,1721744202793
6.24,1.44,10.81,-0.11,0.31,0.46,1721744202802
7.59,2.29,5.43,0.12,-0.03,-0.2,1721744202811
4.21,-0.22,2.56,-0.11,0.04,-0.8,1721744202820
-3.88,7.86,14.6,0.01,-0.21,-0.64,1721744202829
-4.36,-2.42,10.93,-0.08,0.03,-0.08,1721744202838
-1.07,0.28,16.4,-0.08,0.16,0.27,1721744202847
2.82,-4.84,11.91,-0.02,0.05,0.21,1721744202856
4.58,6.29,12.2,0.27,0.19,-0.28,1721744202865
2.91,4.06,-2.11,0.3,-0.14,-0.59,1721744202874
-2.61,3.1,2.48,-0.1,0.27,-0.82,1721744202883
-6.34,0.67,19.24,0.01,0.07,-0.53,1721744202892
-6.81,3.66,15.47,0.25,0.03,-0.01,1721744202901
-0.14,-2.25,6.39,-0.02,0.19,0.39,1721744202910
3.82,-4.7,14.19,-0.2,0.31,0.2,1721744202919
3.56,6.59,13.06,0.34,-0.04,-0.25,1721744202928
3.83,1.12,-6.54,0.23,-0.03,-0.55,1721744202937
-3.34,-1.81,2.81,-0.27,0.26,-0.53,1721744202946
-3.11,1.62,15.73,-0.01,0.18,-0.28,1721744202955
-3.49,-6.68,10.73,-0.02,0.06,0.0,1721744202964
-1.62,-0.05,21.89,0.04,0.37,0.11,1721744202973
0.96,7.01,13.09,0.46,0.01,0.09,1721744202982
2.76,6.36,-4.5,0.05,0.16,-0.05,1721744202991
3.74,-6.07,9.42,-0.49,0.42,-0.3,1721744203000
-2.09,-3.35,22.88,0.2,-0.11,-0.43,1721744203009
-1.84,-1.65,5.92,0.41,0.13,-0.35,1721744203018
-3.42,11.74,6.06,0.14,0.21,0.03,1721744203027
-0.43,8.31,5.34,-0.06,0.34,0.23,1721744203036
3.14,-1.25,4.36,-0.22,0.18,0.11,1721744203045
3.0,-4.47,9.34,-0.31,0.32,-0.21,1721744203054
0.88,-0.8,19.64,-0.03,0.26,-0.51,1721744203063
-3.61,-3.72,17.45,0.15,0.01,-0.42,1721744203072
-5.36,2.61,12.8,0.25,0.22,-0.05,1721744203081
-3.15,2.06,4.55,0.03,0.2,0.32,1721744203090
1.14,0.57,12.9,-0.16,0.38,0.15,1721744203100
3.3,5.63,13.88,0.24,0.1,0.09,1721744203109
4.89,2.89,0.21,-0.03,0.28,-0.22,1721744203118
-1.25,3.3,10.41,-0.12,0.3,-0.81,1721744203127
-7.28,1.19,7.77,0.05,-0.17,-0.44,1721744203136
-6.31,-0.96,2.76,-0.3,0.28,0.5,1721744203145
0.23,-6.2,18.92,-0.48,0.56,0.64,1721744203154
3.23,-3.57,21.9,0.11,0.12,0.14,1721744203163
5.21,-2.76,11.1,0.26,0.08,-0.09,1721744203172
1.01,4.28,8.12,0.1,0.15,-0.08,1721744203181
-1.25,4.99,7.46,-0.16,0.19,-0.31,1721744203190
-6.18,2.66,16.63,-0.08,0.1,-0.2,1721744203199
-5.19,-1.77,14.86,0.13,0.17,0.21,1721744203208
-1.96,-4.99,5.28,0.03,0.2,0.49,1721744203217
1.65,-0.71,5.68,0.0,0.26,0.32,1721744203226
1.72,7.17,12.66,0.17,0.12,0.12,1721744203235
1.53,6.32,5.06,0.16,-0.03,0.12,1721744203244
2.07,2.64,3.3,-0.12,0.22,0.08,1721744203253
0.95,-6.65,9.69,-0.3,0.15,0.03,1721744203262
-1.57,-2.36,20.89,-0.07,0.13,-0.12,1721744203271
-4.31,9.85,14.51,0.51,-0.12,0.07,1721744203280
-0.82,1.51,0.21,0.07,0.15,0.36,1721744203289
-0.11,0.52,11.21,-0.3,0.18,0.42,1721744203298
2.47,-3.09,16.45,0.01,0.11,0.16,1721744203307
1.55,-3.21,20.9,0.18,0.12,-0.17,1721744203316
-3.26,8.07,13.48,0.52,-0.21,-0.1,1721744203325
-2.12,11.83,-5.07,0.35,0.17,0.24,1721744203334
0.81,-3.52,-4.17,-0.43,0.2,0.61,1721744203343
2.22,-4.83,18.36,-0.38,0.4,0.29,1721744203352
4.35,-2.16,17.42,0.21,-0.12,-0.07,1721744203361
0.85,-1.63,4.45,-0.02,-0.06,-0.32,1721744203370
-4.87,5.83,18.24,0.01,-0.01,-0.1,1721744203379
-3.57,-1.04,4.94,0.17,-0.05,0.34,1721744203388
1.11,-6.83,5.74,-0.22,0.2,0.38,1721744203397
-0.56,3.73,20.93,0.02,0.06,0.18,1721744203406
0.47,10.09,9.34,0.46,-0.08,-0.02,1721744203415
-0.05,2.82,-2.98,-0.0,-0.08,-0.02,1721744203424
-2.46,-1.62,7.14,-0.3,0.11,0.16,1721744203433
-0.51,-7.26,10.33,-0.2,-0.01,0.29,1721744203442
-0.54,-4.59,16.26,-0.1,0.03,0.21,1721744203451
-0.65,6.25,18.64,0.26,-0.11,0.22,1721744203460
0.74,6.96,5.87,0.16,-0.1,0.42,1721744203469
2.66,-0.12,10.25,-0.26,0.19,0.33,1721744203478
3.22,-4.3,16.1,0.0,-0.03,0.21,1721744203487
1.99,-5.67,3.95,0.09,-0.05,-0.09,1721744203496
-1.74,2.56,7.58,0.02,-0.04,-0.21,1721744203505
-5.22,6.28,14.86,0.13,-0.0,0.06,1721744203514
-4.71,5.58,14.23,0.17,-0.11,0.47,1721744203523
1.69,2.68,5.1,0.11,0.06,0.7,1721744203532
6.29,-1.62,7.3,-0.18,0.15,0.39,1721744203541
3.95,3.39,16.42,-0.03,-0.15,-0.09,1721744203550
0.13,5.92,11.03,0.24,-0.18,-0.41,1721744203559
-3.77,7.64,-1.76,0.27,-0.25,-0.05,1721744203568
-0.26,-8.19,-0.62,-0.42,0.11,0.27,1721744203577
-2.34,-3.44,21.33,-0.28,-0.09,0.32,1721744203586
1.32,2.25,18.62,0.28,-0.02,0.1,1721744203595
-0.42,6.87,2.55,0.14,-0.32,0.1,1721744203604
1.09,2.48,9.55,-0.15,0.33,0.16,1721744203613
2.71,-4.59,13.3,0.08,-0.05,0.16,1721744203622
1.29,-2.07,2.13,-0.08,-0.04,0.05,1721744203631
1.27,0.06,15.27,-0.29,0.26,-0.0,1721744203640
-0.34,2.99,27.19,0.13,0.04,-0.02,1721744203649
-0.08,3.16,6.46,0.35,-0.27,0.05,1721744203658
1.13,-0.32,-3.09,-0.13,0.18,0.07,1721744203667
0.75,2.75,10.48,-0.29,0.07,0.06,1721744203676
2.19,1.7,11.77,-0.21,0.21,-0.13,1721744203685
2.26,0.69,11.36,-0.09,-0.0,-0.19,1721744203694
0.92,-7.13,5.35,-0.16,0.03,-0.17,1721744203703
-0.29,-0.11,12.12,-0.12,0.1,-0.1,1721744203712
0.26,9.01,15.73,0.01,0.2,0.02,1721744203721
2.61,4.63,13.9,-0.14,0.13,0.11,1721744203730
3.76,0.57,18.21,-0.15,0.3,-0.19,1721744203739
2.18,-3.54,8.76,0.08,0.02,-0.46,1721744203748
-2.74,4.07,1.55,0.04,0.21,-0.61,1721744203757
-5.08,5.74,5.89,-0.08,0.21,-0.22,1721744203766
-5.47,1.88,12.31,-0.25,0.26,0.25,1721744203775
-1.04,-2.06,16.71,-0.07,0.34,0.28,1721744203784
0.68,-2.75,13.83,0.14,0.08,0.01,1721744203793
0.05,7.75,8.94,0.22,0.15,-0.23,1721744203802
-3.41,7.97,6.45,0.14,0.04,-0.32,1721744203811
-4.53,3.27,13.18,-0.03,0.11,-0.13,1721744203820
-6.16,-14.07,11.52,0.02,-0.18,-0.14,1721744203829
-3.02,-7.28,12.82,-0.07,-0.06,-0.08,1721744203838
-1.55,-3.91,11.89,0.09,-0.01,0.18,1721744203847
2.58,0.61,4.22,0.16,0.27,0.05,1721744203856
2.9,-4.3,8.03,0.03,0.04,-0.17,1721744203865
0.0,-5.82,11.03,0.17,-0.0,-0.53,1721744203874
-5.77,2.89,6.08,0.34,-0.14,-0.46,1721744203883
-7.18,0.61,2.34,0.07,0.05,0.06,1721744203892
-5.19,2.18,17.68,-0.2,0.28,0.55,1721744203901
-2.21,8.54,30.31,0.48,-0.04,0.6,1721744203910
3.82,-4.5,8.6,0.53,-0.29,0.37,1721744203919
5.02,7.89,2.95,0.3,0.05,-0.09,1721744203928
-0.58,8.25,7.69,0.1,-0.3,-0.33,1721744203937
-3.74,9.0,16.88,0.15,-0.28,-0.12,1721744203946
-4.28,4.56,8.49,0.53,-0.26,0.19,1721744203955
-0.71,-4.61,-7.57,0.11,-0.26,0.3,1721744203964
-1.31,6.22,-0.75,-0.28,-0.06,0.25,1721744203973
3.05,-5.24,15.14,-0.6,0.02,0.26,1721744203982
-2.2,0.6,29.27,-0.19,-0.21,0.36,1721744203991
-1.7,-2.73,12.17,0.37,-0.28,0.26,1721744204000
0.75,-8.14,-2.89,-0.08,-0.24,0.34,1721744204009
-0.33,-3.07,11.06,-0.33,0.05,0.6,1721744204018
4.41,-3.3,16.01,-0.14,-0.12,0.72,1721744204027
5.3,-4.97,2.83,0.03,-0.12,0.06,1721744204036
4.56,-0.66,-0.88,0.02,-0.2,-0.26,1721744204045
0.52,-0.78,-2.39,-0.31,-0.02,-0.14,1721744204054
-2.29,-4.47,17.79,-0.47,0.07,-0.05,1721744204063
-4.02,-6.17,24.93,0.06,-0.25,-0.03,1721744204072
-0.26,-8.56,6.99,0.11,-0.12,0.1,1721744204081
0.26,-4.34,11.42,-0.18,0.06,-0.03,1721744204090
-0.92,-5.12,16.21,0.06,-0.23,0.1,1721744204100
-3.54,-10.75,7.94,-0.1,-0.18,0.17,1721744204109
-3.06,7.69,25.6,0.21,0.38,0.19,1721744204118
-0.93,12.26,16.4,0.72,-0.04,0.06,1721744204127
-2.33,12.25,-4.11,0.29,-0.14,0.26,1721744204136
5.07,4.07,-0.31,-0.41,0.47,0.84,1721744204145
8.48,1.19,25.86,-0.51,0.41,0.53,1721744204154
6.68,2.58,30.13,0.23,-0.19,-0.13,1721744204163
5.8,12.9,-1.38,0.55,-0.25,-0.38,1721744204172
2.66,8.49,-2.76,-0.26,0.27,-0.41,1721744204181
-4.49,10.77,20.5,-0.15,0.05,-0.17,1721744204190
-2.39,2.42,12.96,0.33,0.14,-0.2,1721744204199
0.06,-4.73,-4.06,0.23,-0.15,0.16,1721744204208
4.09,-6.84,-7.77,-0.32,0.38,0.27,1721744204217
6.71,-7.2,17.43,-0.42,0.4,-0.17,1721744204226
2.0,4.19,24.33,0.42,-0.55,-0.55,1721744204235
-1.28,3.28,6.33,0.51,0.07,-0.82,1721744204244
-0.47,-10.95,-4.01,-0.38,-0.13,-0.54,1721744204253
-3.11,-14.35,12.37,-0.88,0.56,-0.6,1721744204262
-2.43,-10.37,30.72,0.02,-0.01,-0.72,1721744204271
-6.17,5.63,14.47,0.48,0.12,-0.77,1721744204280
-9.65,2.18,-3.91,0.12,-0.31,-0.61,1721744204289
-12.69,-5.74,2.72,-0.51,0.13,-0.41,1721744204298
-10.78,-11.03,17.75,-0.42,-0.01,0.18,1721744204307
-2.27,-3.89,15.73,0.05,0.16,0.42,1721744204316
4.08,1.91,8.32,-0.1,0.18,-0.13,1721744204325
-2.46,19.57,13.94,0.26,-0.26,-0.44,1721744204334
-1.54,-6.91,-7.82,-0.47,-0.08,0.19,1721744204348
-2.81,-15.1,1.92,-0.98,0.23,0.31,1721744204352
0.1,-1.69,39.31,-0.35,-0.04,0.54,1721744204361
5.24,16.38,22.28,0.64,0.06,0.0,1721744204370
-0.13,17.02,-2.63,0.2,-0.78,-0.22,1721744204379
-5.3,10.89,-5.68,-0.24,-0.07,-0.03,1721744204388
-0.05,-11.83,1.32,-0.68,-0.15,0.29,1721744204397
-2.41,-13.73,26.68,-0.61,-0.1,0.33,1721744204406
2.42,8.64,33.41,0.33,-0.19,0.39,1721744204415
1.6,3.25,-2.67,0.2,-0.39,0.32,1721744204424
8.16,-0.58,-3.99,-0.5,0.16,0.12,1721744204433
-3.24,-13.61,11.71,-0.58,-0.15,-0.13,1721744204442
-1.74,-9.13,22.19,-0.06,0.08,-0.36,1721744204451
-6.75,-2.4,11.9,0.11,-0.36,0.03,1721744204460
-6.24,1.41,4.69,-0.01,0.04,0.52,1721744204469
1.42,-4.48,4.66,-0.49,0.14,0.69,1721744204478
2.36,2.61,13.96,-0.19,0.08,0.5,1721744204487
9.09,-15.02,9.81,-0.48,0.02,0.03,1721744204496
-0.08,-0.56,29.14,-0.36,-0.09,-0.44,1721744204505
1.22,15.34,12.13,0.52,-0.03,-0.06,1721744204514
4.37,-0.23,-21.02,-0.21,0.03,0.1,1721744204523
5.81,-16.81,6.05,-1.01,0.63,-0.07,1721744204532
0.36,-1.63,32.02,-0.12,0.06,-0.7,1721744204541
-2.3,14.44,25.36,0.65,-0.05,-0.73,1721744204550
-6.68,15.62,-2.91,0.76,-0.09,-0.04,1721744204559
2.32,5.46,1.91,-0.02,0.47,0.42,1721744204568
2.01,3.53,18.68,-0.02,0.19,0.22,1721744204577
2.83,6.93,16.96,0.42,0.2,-0.35,1721744204586
3.14,5.63,5.3,0.36,0.06,-0.39,1721744204595
0.0,-1.43,2.77,0.06,0.2,-0.13,1721744204604
-0.26,-4.95,14.49,-0.12,0.32,-0.13,1721744204613
