AccX,AccY,AccZ,GyrX,GyrY,GyrZ,Time,TimeDiff(ms),Acc_Magnitude,Gyr_Magnitude,Acc_L2Norm,Gyr_L2Norm,Acc_Mean,Gyr_Mean,Acc_Variance,Gyr_Variance,Acc_StdDev,Gyr_StdDev
2.07,4.53,13.72,0.16,0.1,-0.2,1721207094676,555000.0,14.596033707826248,0.2749545416973504,14.596033707826248,0.2749545416973504,6.773333333333333,0.02,37.70503333333333,0.0372,6.140442437913846,0.192873015219859
0.4,6.67,10.66,0.19,0.07,-0.25,1721207094681,5000.0,12.581116802573607,0.3217141588429082,12.581116802573607,0.3217141588429082,5.91,0.0033333333333333,26.7501,0.0517333333333333,5.172049883750156,0.227449628123093
-0.12,-3.95,6.03,0.11,0.01,-0.33,1721207094691,10000.0,7.209563093558444,0.3479942528261063,7.209563093558444,0.3479942528261063,0.6533333333333333,-0.07,25.348633333333336,0.0532,5.034742628311137,0.2306512518934159
-1.03,-5.83,10.17,-0.02,0.24,-0.23,1721207094701,10000.0,11.76769731085908,0.3330165161069342,11.76769731085908,0.3330165161069342,1.1033333333333333,-0.0033333333333333,67.41333333333333,0.0554333333333333,8.210562303115013,0.2354428451521373
-1.76,2.58,17.95,0.15,0.12,-0.07,1721207094711,10000.0,18.21967343285823,0.2044504830026087,18.21967343285823,0.2044504830026087,6.256666666666667,0.0666666666666666,107.25943333333332,0.0142333333333333,10.35661302421469,0.1193035344544885
-0.93,4.86,11.77,0.24,0.09,-0.06,1721207094721,10000.0,12.767826753210588,0.2632489316217636,12.767826753210588,0.2632489316217636,5.233333333333333,0.0899999999999999,40.42703333333333,0.0225,6.358225643474233,0.15
0.81,-0.82,1.96,0.15,0.11,0.0,1721207094731,10000.0,2.2737853900489378,0.1860107523773827,2.2737853900489378,0.1860107523773827,0.65,0.0866666666666666,1.9513,0.0060333333333333,1.3968894014917572,0.0776745346515402
2.26,-5.24,8.24,-0.05,0.32,-0.16,1721207094741,10000.0,10.023113288794056,0.3612478373637688,10.023113288794056,0.3612478373637688,1.7533333333333332,0.0366666666666666,45.620133333333335,0.0632333333333333,6.754267786617091,0.2514623895005639
0.51,0.96,20.03,0.15,0.07,-0.29,1721207094751,10000.0,20.05947656345997,0.33391615714128,20.05947656345997,0.33391615714128,7.166666666666667,-0.0233333333333333,124.14963333333334,0.0549333333333333,11.142245434980032,0.2343786110832926
-3.19,4.06,6.65,0.37,-0.03,-0.31,1721207094761,10000.0,8.41915672736884,0.4836320915737498,8.41915672736884,0.4836320915737498,2.5066666666666664,0.0099999999999999,26.016033333333333,0.1167999999999999,5.100591468970372,0.3417601498127012
-3.42,3.75,1.1,0.12,0.21,-0.12,1721207094771,10000.0,5.193158961557021,0.2699999999999999,5.193158961557021,0.2699999999999999,0.4766666666666667,0.0699999999999999,13.143633333333332,0.0291,3.62541491878286,0.1705872210923198
-0.97,2.02,12.64,-0.05,0.33,0.07,1721207094781,10000.0,12.837090791920108,0.3410278580995987,12.837090791920108,0.3410278580995987,4.5633333333333335,0.1166666666666666,51.15943333333335,0.0377333333333333,7.1525822842756135,0.1942506971244462
0.99,-1.15,10.34,-0.02,0.06,0.01,1721207094791,10000.0,10.450751169174396,0.0640312423743284,10.450751169174396,0.0640312423743284,3.393333333333333,0.0166666666666666,37.33703333333334,0.0016333333333333,6.110403696429012,0.0404145188432738
1.25,-2.55,7.57,-0.13,0.17,-0.22,1721207094801,10000.0,8.085165428115864,0.3069201850644561,8.085165428115864,0.3069201850644561,2.0900000000000003,-0.06,26.132800000000003,0.0417,5.112025039062309,0.2042057785666213
0.55,-3.65,12.4,-0.22,0.2,-0.31,1721207094811,10000.0,12.937735505102893,0.4295346318982906,12.937735505102893,0.4295346318982906,3.1,-0.1099999999999999,69.2775,0.0741,8.323310639403049,0.272213151776324
-1.48,2.76,13.59,0.08,0.06,-0.22,1721207094821,10000.0,13.94618585850626,0.2416609194718914,13.94618585850626,0.2416609194718914,4.956666666666666,-0.0266666666666666,60.39523333333332,0.0281333333333333,7.771437018552832,0.1677299416721216
-0.42,1.89,6.04,0.05,0.21,-0.16,1721207094831,10000.0,6.342720236617724,0.268700576850888,6.342720236617724,0.268700576850888,2.5033333333333334,0.0333333333333333,10.715033333333334,0.0344333333333333,3.2733825522436777,0.1855622087962237
-1.08,-0.93,12.3,-0.08,0.07,-0.11,1721207094841,10000.0,12.38229784813788,0.1529705854077835,12.38229784813788,0.1529705854077835,3.43,-0.04,59.01330000000001,0.0093,7.6820114553416285,0.0964365076099295
-2.4,0.49,13.4,-0.05,0.06,-0.16,1721207094851,10000.0,13.622044633607688,0.1780449381476485,13.622044633607688,0.1780449381476485,3.83,-0.05,70.7767,0.0121,8.412888921173273,0.11
-2.67,5.28,10.8,0.1,0.06,-0.09,1721207094861,10000.0,12.314515824830467,0.1473091986265623,12.314515824830467,0.1473091986265623,4.47,0.0233333333333333,45.85230000000001,0.0100333333333333,6.771432640143444,0.1001665280087781
0.04,1.09,7.6,-0.14,0.27,0.04,1721207094871,10000.0,7.677870798600352,0.3067572330035594,7.677870798600352,0.3067572330035594,2.91,0.0566666666666666,16.772699999999997,0.0422333333333333,4.09544869336682,0.2055075018906447
0.13,-0.69,14.09,-0.05,0.11,-0.03,1721207094881,10000.0,14.107483829514036,0.1244989959798873,14.107483829514036,0.1244989959798873,4.51,0.01,69.00039999999998,0.0076,8.306647940053796,0.0871779788708134
0.8,2.44,7.3,0.12,-0.0,-0.05,1721207094891,10000.0,7.738449457094102,0.13,7.738449457094102,0.13,3.513333333333333,0.0233333333333333,11.426533333333332,0.0076333333333333,3.380315567122888,0.087368949480541
0.79,0.17,3.56,-0.03,0.1,0.01,1721207094901,10000.0,3.650561600630785,0.1048808848170151,3.650561600630785,0.1048808848170151,1.5066666666666668,0.0266666666666666,3.258233333333333,0.0044333333333333,1.805057709142102,0.0665832811847939
1.02,0.24,14.09,-0.13,0.28,-0.09,1721207094911,10000.0,14.128910078275675,0.3215587038162705,14.128910078275675,0.3215587038162705,5.116666666666666,0.02,60.54263333333332,0.0511,7.7809146848769215,0.2260530911091463
-0.27,1.79,15.07,0.07,-0.03,-0.18,1721207094921,10000.0,15.178336535997612,0.1954482028569206,15.178336535997612,0.1954482028569206,5.53,-0.0466666666666666,69.3196,0.0158333333333333,8.32583929703186,0.1258305739211791
-1.57,0.74,6.52,0.03,0.05,0.02,1721207094931,10000.0,6.747066029023282,0.0616441400296897,6.747066029023282,0.0616441400296897,1.8966666666666665,0.0333333333333333,17.365433333333332,0.0002333333333333,4.167185301055538,0.0152752523165194
0.48,0.02,5.39,-0.14,0.16,0.13,1721207094941,10000.0,5.411367664463393,0.2491987158875422,5.411367664463393,0.2491987158875422,1.9633333333333327,0.0499999999999999,8.859433333333333,0.0273,2.9764800240104643,0.165227116418583
1.52,-1.99,9.88,-0.24,0.12,0.03,1721207094951,10000.0,10.192394223145024,0.2699999999999999,10.192394223145024,0.2699999999999999,3.1366666666666667,-0.03,37.18443333333334,0.0351,6.097904011488976,0.1873499399519519
1.22,-0.65,10.44,0.0,0.13,-0.16,1721207094961,10000.0,10.531120548165802,0.206155281280883,10.531120548165802,0.206155281280883,3.67,-0.01,35.2489,0.0211,5.937078406084932,0.1452583904633395
-1.41,-1.14,7.93,-0.09,0.0,-0.13,1721207094971,10000.0,8.134654264318797,0.1581138830084189,8.134654264318797,0.1581138830084189,1.7933333333333332,-0.0733333333333333,28.26223333333333,0.0044333333333333,5.31622359700317,0.0665832811847939
-3.11,-1.35,16.35,-0.23,0.14,0.02,1721207094981,10000.0,16.69781722261925,0.27,16.69781722261925,0.27,3.963333333333333,-0.0233333333333333,115.84653333333335,0.0356333333333333,10.763202745155986,0.1887679351302369
-0.29,0.37,20.0,-0.06,0.12,0.2,1721207094991,10000.0,20.00552423707012,0.2408318915758459,20.00552423707012,0.2408318915758459,6.6933333333333325,0.0866666666666666,132.90943333333337,0.0177333333333333,11.528635363013844,0.1331665623695878
0.39,4.24,6.29,0.04,-0.11,0.27,1721207095001,10000.0,7.595643488210858,0.2942787793912432,7.595643488210858,0.2942787793912432,3.64,0.0666666666666666,8.9725,0.0366333333333333,2.995413160150032,0.1913983629327412
2.81,0.78,4.94,-0.03,0.23,0.1,1721207095011,10000.0,5.736558201569998,0.2525866188063018,5.736558201569998,0.2525866188063018,2.8433333333333337,0.1,4.327233333333334,0.0169,2.0802003108675216,0.13
2.7,-2.18,10.89,0.03,0.08,-0.13,1721207095021,10000.0,11.429545047813583,0.1555634918610404,11.429545047813583,0.1555634918610404,3.803333333333333,-0.0066666666666666,43.61923333333334,0.0120333333333333,6.604485849279514,0.1096965511460289
-0.3,2.62,10.71,0.12,0.03,-0.21,1721207095031,10000.0,11.029891205265807,0.2437211521390788,11.029891205265807,0.2437211521390788,4.343333333333334,-0.02,32.53243333333334,0.0290999999999999,5.70372100766976,0.1705872210923198
-2.15,5.5,9.27,0.12,0.04,-0.05,1721207095041,10000.0,10.991150986134254,0.1360147050873544,10.991150986134254,0.1360147050873544,4.206666666666666,0.0366666666666666,33.85863333333333,0.0072333333333333,5.818817176482978,0.0850490054811538
-2.39,-0.32,6.44,-0.1,0.05,0.17,1721207095051,10000.0,6.87663435119245,0.203469899493758,6.87663435119245,0.203469899493758,1.2433333333333334,0.04,21.325233333333337,0.0183,4.617925219547555,0.1352774925846868
-0.86,-2.51,9.35,-0.05,0.11,0.16,1721207095061,10000.0,9.719166630941151,0.2004993765576342,9.719166630941151,0.2004993765576342,1.9933333333333332,0.0733333333333333,41.271033333333335,0.0120333333333333,6.4242535234323785,0.1096965511460289
1.53,-1.25,7.58,0.05,0.02,0.13,1721207095071,10000.0,7.833249644943023,0.1407124727947029,7.833249644943023,0.1407124727947029,2.62,0.0666666666666666,20.3833,0.0032333333333333,4.514786816672522,0.0568624070307732
1.5,1.21,10.43,-0.04,0.07,0.03,1721207095081,10000.0,10.606554577241376,0.0860232526704262,10.606554577241376,0.0860232526704262,4.38,0.02,27.4729,0.0031,5.241459720345088,0.0556776436283002
0.44,0.45,12.86,-0.05,0.08,-0.1,1721207095091,10000.0,12.875391256191012,0.1374772708486752,12.875391256191012,0.1374772708486752,4.583333333333333,-0.0233333333333333,51.377433333333336,0.0086333333333333,7.167805335898383,0.0929157324317756
-1.91,-0.1,11.74,-0.11,-0.04,-0.13,1721207095101,10000.0,11.894776164350468,0.174928556845359,11.894776164350468,0.174928556845359,3.2433333333333336,-0.0933333333333333,54.96403333333333,0.0022333333333333,7.413773218364137,0.047258156262526
-2.94,-2.93,12.11,-0.14,0.06,0.04,1721207095111,10000.0,12.80158583926226,0.1574801574802362,12.80158583926226,0.1574801574802362,2.08,-0.0133333333333333,75.45069999999998,0.0121333333333333,8.686236239016297,0.110151410945722
-1.66,-2.37,11.54,0.02,0.01,0.2,1721207095121,10000.0,11.89723077022548,0.2012461179749811,11.89723077022548,0.2012461179749811,2.503333333333333,0.0766666666666666,61.37203333333332,0.0114333333333333,7.8340304654330595,0.1069267662156362
0.15,0.4,9.97,-0.05,0.03,0.15,1721207095131,10000.0,9.979148260247465,0.1609347693943108,9.979148260247465,0.1609347693943108,3.5066666666666677,0.0433333333333333,31.346633333333337,0.0101333333333333,5.598806420419743,0.1006644591369433
1.08,2.41,15.1,0.06,0.1,-0.01,1721207095141,10000.0,15.329204154162731,0.1170469991071962,15.329204154162731,0.1170469991071962,6.196666666666666,0.0499999999999999,59.89423333333332,0.0031,7.739136472070596,0.0556776436283002
0.26,5.61,8.43,0.24,-0.1,-0.09,1721207095151,10000.0,10.129392874205246,0.2751363298439521,10.129392874205246,0.2751363298439521,4.766666666666667,0.0166666666666666,17.220633333333335,0.0374333333333333,4.149775094307321,0.1934769581457526
-1.55,-3.31,3.8,-0.13,0.01,-0.01,1721207095161,10000.0,5.272437766346797,0.1307669683062202,5.272437766346797,0.1307669683062202,-0.3533333333333335,-0.0433333333333333,13.712033333333334,0.0057333333333333,3.702976280417326,0.0757187779440036
-3.83,-6.06,13.3,-0.13,-0.05,0.09,1721207095171,10000.0,15.109020484465564,0.1658312395177699,15.109020484465564,0.1658312395177699,1.1366666666666667,-0.03,112.20323333333334,0.0124,10.592602764822882,0.1113552872566004
0.75,4.18,16.08,0.18,0.16,0.07,1721207095181,10000.0,16.631334883285824,0.250798724079689,16.631334883285824,0.250798724079689,7.003333333333333,0.1366666666666666,64.73063333333332,0.0034333333333333,8.045534993605665,0.0585946527708231
1.07,2.63,3.63,0.14,-0.26,0.11,1721207095191,10000.0,4.608546408576136,0.3151190251317746,4.608546408576136,0.3151190251317746,2.4433333333333334,-0.0033333333333333,1.6645333333333332,0.0496333333333333,1.2901679477236028,0.2227853974867593
0.2,-0.68,8.49,-0.02,0.21,-0.03,1721207095201,10000.0,8.519536372362055,0.2130727575266251,8.519536372362055,0.2130727575266251,2.67,0.0533333333333333,25.597900000000003,0.0184333333333333,5.059436727541911,0.1357694123627753
0.58,-0.24,13.54,0.12,-0.11,-0.1,1721207095211,10000.0,13.554541674287623,0.191049731745428,13.554541674287623,0.191049731745428,4.626666666666666,-0.03,59.75373333333334,0.0169,7.730053902356266,0.13
-2.02,4.96,5.58,0.2,-0.18,-0.01,1721207095221,10000.0,7.734235579551479,0.2692582403567252,7.734235579551479,0.2692582403567252,2.84,0.0033333333333333,17.8108,0.0362333333333333,4.220284350609566,0.1903505538035897
-0.11,-2.73,6.93,-0.07,0.08,0.09,1721207095231,10000.0,7.449154314417173,0.1392838827718412,7.449154314417173,0.1392838827718412,1.3633333333333333,0.0333333333333333,24.95693333333333,0.0080333333333333,4.995691476996286,0.089628864398325
-0.98,-1.42,19.11,-0.09,0.0,0.01,1721207095241,10000.0,19.18772784881003,0.0905538513813741,19.18772784881003,0.0905538513813741,5.57,-0.0266666666666666,137.5471,0.0030333333333333,11.72804757834824,0.055075705472861
-0.76,2.96,15.94,0.19,-0.08,-0.11,1721207095251,10000.0,16.23030498789225,0.2336664289109584,16.23030498789225,0.2336664289109584,6.046666666666667,0.0,76.86813333333333,0.0273,8.767447367012439,0.165227116418583
-0.35,2.69,8.03,0.13,-0.07,-0.03,1721207095261,10000.0,8.475818544541877,0.1506651917331936,8.475818544541877,0.1506651917331936,3.4566666666666666,0.01,17.99693333333333,0.0112,4.242279261591973,0.1058300524425836
-1.54,4.01,9.46,0.01,-0.06,0.08,1721207095271,10000.0,10.389576507249949,0.1004987562112089,10.389576507249949,0.1004987562112089,3.9766666666666666,0.01,30.25083333333334,0.0049,5.500075757054019,0.07
-0.88,-0.31,9.83,0.09,-0.15,0.08,1721207095281,10000.0,9.874178446837997,0.1923538406167134,9.874178446837997,0.1923538406167134,2.8800000000000003,0.0066666666666666,36.3081,0.0184333333333333,6.025620300018911,0.1357694123627753
1.1,-0.57,12.15,0.13,0.04,0.09,1721207095291,10000.0,12.213001269139376,0.1630950643030009,12.213001269139376,0.1630950643030009,4.226666666666667,0.0866666666666666,47.78163333333333,0.0020333333333333,6.912426009248369,0.0450924975282289
1.84,0.2,6.86,0.23,-0.17,0.13,1721207095301,10000.0,7.105293801103513,0.3141655614481002,7.105293801103513,0.3141655614481002,2.966666666666667,0.0633333333333333,12.040933333333337,0.0433333333333333,3.470004803070644,0.2081665999466132
2.04,3.83,10.25,0.1,0.09,-0.03,1721207095311,10000.0,11.130723246941324,0.1378404875209022,11.130723246941324,0.1378404875209022,5.373333333333334,0.0533333333333333,18.63743333333333,0.0052333333333333,4.317109372408039,0.0723417813807023
1.02,2.98,9.87,0.19,-0.16,-0.16,1721207095321,10000.0,10.360390919265546,0.2954657340538831,10.360390919265546,0.2954657340538831,4.623333333333333,-0.0433333333333333,21.60603333333333,0.0408333333333333,4.648229053449639,0.202072594216369
0.02,1.6,8.28,0.18,-0.04,-0.12,1721207095331,10000.0,8.433196309822273,0.22,8.433196309822273,0.22,3.2999999999999994,0.0066666666666666,19.2244,0.0241333333333333,4.384563832355505,0.1553490693030805
-0.17,-1.51,6.75,0.04,-0.03,-0.01,1721207095341,10000.0,6.918923326645555,0.0509901951359278,6.918923326645555,0.0509901951359278,1.6900000000000002,5.782411586589358e-19,19.6516,0.0013,4.433012519720647,0.0360555127546398
-0.06,-4.03,14.7,-0.11,0.09,-0.06,1721207095351,10000.0,15.242522757076664,0.1542724862054151,15.242522757076664,0.1542724862054151,3.536666666666666,-0.0266666666666666,97.40523333333331,0.0108333333333333,9.869408965755412,0.1040832999733066
0.02,2.75,16.47,0.2,-0.03,-0.15,1721207095361,10000.0,16.69801784643914,0.2517935662402834,16.69801784643914,0.2517935662402834,6.413333333333333,0.0066666666666666,77.71563333333332,0.0316333333333333,8.815647074000486,0.177857620959388
-0.51,9.96,5.31,0.36,-0.1,-0.05,1721207095371,10000.0,11.298575131404846,0.3769615364994153,11.298575131404846,0.3769615364994153,4.920000000000001,0.07,27.519300000000005,0.0637,5.245884100892813,0.2523885892824792
-1.07,-2.1,-3.97,-0.09,-0.17,0.11,1721207095381,10000.0,4.616903724359,0.2215851980616034,4.616903724359,0.2215851980616034,-2.3800000000000003,-0.05,2.1613,0.0208,1.470136048126159,0.1442220510185595
-1.05,-11.11,10.88,-0.44,0.22,0.05,1721207095391,10000.0,15.585538168443206,0.4944694126030446,15.585538168443206,0.4944694126030446,-0.4266666666666664,-0.0566666666666666,121.18143333333332,0.1174333333333333,11.008243880534868,0.3426854728950927
0.72,1.23,25.89,0.15,0.03,-0.09,1721207095401,10000.0,25.92919975625935,0.1774823934929884,25.92919975625935,0.1774823934929884,9.28,0.03,206.9841,0.0144,14.386941996129684,0.12
0.26,6.13,3.05,0.25,-0.32,-0.08,1721207095411,10000.0,6.851788087791391,0.4138840417314975,6.851788087791391,0.4138840417314975,3.1466666666666665,-0.05,8.621233333333333,0.0819,2.936193681168416,0.2861817604250837
-0.84,1.77,8.62,-0.33,0.27,-0.1,1721207095421,10000.0,8.83984728374874,0.4379497688091638,8.83984728374874,0.4379497688091638,3.183333333333333,-0.0533333333333333,23.87103333333333,0.0916333333333333,4.885799149917373,0.302709982216202
-1.66,-2.51,19.05,-0.04,-0.18,0.04,1721207095431,10000.0,19.28621787702296,0.188679622641132,19.28621787702296,0.188679622641132,4.96,-0.06,149.07670000000002,0.0124,12.209696965936542,0.1113552872566004
-0.74,-3.78,7.57,-0.09,-0.09,0.05,1721207095441,10000.0,8.493579928392974,0.1367479433117734,8.493579928392974,0.1367479433117734,1.0166666666666668,-0.0433333333333333,34.52003333333334,0.0065333333333333,5.875375165326325,0.0808290376865476
0.41,1.18,10.18,-0.12,0.07,-0.04,1721207095451,10000.0,10.256359003077064,0.1445683229480096,10.256359003077064,0.1445683229480096,3.923333333333333,-0.03,29.50763333333333,0.0091,5.432092905440161,0.0953939201416945
0.72,4.89,8.23,0.05,-0.07,-0.09,1721207095461,10000.0,9.600177081700108,0.1244989959798873,9.600177081700108,0.1244989959798873,4.613333333333333,-0.0366666666666666,14.157433333333335,0.0057333333333333,3.762636487003938,0.0757187779440036
0.38,2.27,5.31,-0.09,-0.09,-0.03,1721207095471,10000.0,5.787348270149291,0.1307669683062202,5.787348270149291,0.1307669683062202,2.653333333333333,-0.0699999999999999,6.186433333333333,0.0012,2.4872541754580157,0.0346410161513775
-0.9,-1.87,7.11,-0.11,-0.08,-0.09,1721207095481,10000.0,7.406686168591187,0.1630950643030009,7.406686168591187,0.1630950643030009,1.4466666666666663,-0.0933333333333333,24.290233333333337,0.0002333333333333,4.9285122839791455,0.0152752523165194
1.75,-5.13,11.83,-0.25,0.2,-0.25,1721207095491,10000.0,13.012620796749593,0.406201920231798,13.012620796749593,0.406201920231798,2.8166666666666664,-0.0999999999999999,72.76373333333333,0.0675,8.53016607888342,0.2598076211353316
-0.67,4.64,13.68,-0.17,-0.14,-0.28,1721207095501,10000.0,14.461013104205389,0.3562302626111375,14.461013104205389,0.3562302626111375,5.883333333333333,-0.1966666666666666,52.64003333333333,0.0054333333333333,7.255345156044151,0.0737111479583199
-3.14,3.14,9.42,-0.19,0.0,-0.21,1721207095511,10000.0,10.414201841715956,0.2831960451701259,10.414201841715956,0.2831960451701259,3.14,-0.1333333333333333,39.4384,0.0134333333333333,6.28,0.1159022576714247
-2.85,-4.77,9.51,-0.12,-0.05,0.12,1721207095521,10000.0,11.014331573000696,0.1769180601295413,11.014331573000696,0.1769180601295413,0.6300000000000002,-0.0166666666666666,60.06239999999999,0.0152333333333333,7.749993548384411,0.1234233905438241
-0.4,-0.54,7.08,-0.02,0.05,0.16,1721207095531,10000.0,7.11182114510763,0.1688194301613413,7.11182114510763,0.1688194301613413,2.0466666666666664,0.0633333333333333,19.00573333333333,0.0082333333333333,4.359556552372424,0.0907377172587746
1.73,0.06,8.15,-0.18,0.04,0.04,1721207095541,10000.0,8.331806526798374,0.188679622641132,8.331806526798374,0.188679622641132,3.313333333333334,-0.0333333333333333,18.24223333333333,0.0161333333333333,4.271092756348582,0.1270170592217177
1.4,0.7,15.27,-0.23,0.05,-0.2,1721207095551,10000.0,15.35001302931043,0.30886890422961,15.35001302931043,0.30886890422961,5.789999999999999,-0.1266666666666666,67.52529999999999,0.0236333333333333,8.2173779272953,0.1537313674346694
-0.26,0.01,12.91,-0.06,-0.11,-0.19,1721207095561,10000.0,12.912621732243224,0.2275961335348208,12.912621732243224,0.2275961335348208,4.22,-0.12,56.65530000000001,0.0043,7.526971502536728,0.06557438524302
-1.74,-0.48,8.24,-0.11,-0.02,-0.03,1721207095571,10000.0,8.435377881280719,0.1157583690279022,8.435377881280719,0.1157583690279022,2.006666666666667,-0.0533333333333333,29.537733333333332,0.0024333333333333,5.43486277042331,0.0493288286231624
-0.18,2.28,12.89,-0.05,0.08,-0.0,1721207095581,10000.0,13.091329191491596,0.094339811320566,13.091329191491596,0.094339811320566,4.996666666666667,0.01,48.24143333333334,0.0043,6.945605325191847,0.06557438524302
2.19,1.94,11.49,-0.04,0.03,-0.06,1721207095591,10000.0,11.856635273128711,0.0781024967590665,11.856635273128711,0.0781024967590665,5.206666666666667,-0.0233333333333333,29.625833333333336,0.0022333333333333,5.442961816266337,0.047258156262526
0.76,0.52,8.48,-0.05,-0.05,-0.15,1721207095601,10000.0,8.5298534571234,0.1658312395177699,8.5298534571234,0.1658312395177699,3.2533333333333334,-0.0833333333333333,20.50293333333333,0.0033333333333333,4.528016489958195,0.0577350269189625
-1.27,-0.8,7.97,0.02,0.03,-0.23,1721207095611,10000.0,8.110104808200692,0.2328089345364563,8.110104808200692,0.2328089345364563,1.9666666666666663,-0.06,27.085233333333328,0.0217,5.204347541559204,0.1473091986265623
-0.97,-1.98,11.33,0.06,0.1,-0.1,1721207095621,10000.0,11.542538715551272,0.1536229149573721,11.542538715551272,0.1536229149573721,2.793333333333333,0.02,54.911033333333336,0.0112,7.410197928080824,0.1058300524425836
-0.13,-0.13,7.58,0.21,-0.08,0.05,1721207095631,10000.0,7.582229223651841,0.2302172886644267,7.582229223651841,0.2302172886644267,2.44,0.06,19.8147,0.0211,4.451370575452015,0.1452583904633395
1.65,0.96,8.52,0.06,0.14,-0.05,1721207095641,10000.0,8.731237025759865,0.1603121954188139,8.731237025759865,0.1603121954188139,3.71,0.05,17.4711,0.0091,4.179844494715084,0.0953939201416945
0.7,4.47,12.91,0.15,0.01,-0.19,1721207095651,10000.0,13.679875730429718,0.2422808287917143,13.679875730429718,0.2422808287917143,6.026666666666666,-0.01,39.08843333333333,0.0292,6.25207432244158,0.1708800749063506
0.1,3.24,10.47,0.11,0.07,-0.22,1721207095661,10000.0,10.960314776501631,0.2557342370508884,10.960314776501631,0.2557342370508884,4.6033333333333335,-0.0133333333333333,28.27823333333334,0.0324333333333333,5.317728211683382,0.1800925687898679
-0.87,-4.4,7.77,-0.0,-0.02,-0.13,1721207095671,10000.0,8.971610780679242,0.131529464379659,8.971610780679242,0.131529464379659,0.833333333333333,-0.0499999999999999,39.20323333333333,0.0049,6.26124854428678,0.07
-1.67,-4.74,11.85,-0.13,0.12,-0.1,1721207095681,10000.0,12.871635482719356,0.2032240143290157,12.871635482719356,0.2032240143290157,1.8133333333333328,-0.0366666666666666,77.90723333333335,0.0186333333333333,8.826507425552496,0.1365039681962884
-0.6,1.13,15.36,0.1,0.08,-0.04,1721207095691,10000.0,15.413192401316476,0.1341640786499874,15.413192401316476,0.1341640786499874,5.296666666666666,0.0466666666666666,76.70123333333332,0.0057333333333333,8.757924031032315,0.0757187779440036
0.84,7.88,7.6,0.39,0.08,-0.04,1721207095701,10000.0,10.979981785048643,0.4001249804748511,10.979981785048643,0.4001249804748511,5.44,0.1433333333333333,15.8896,0.0492333333333333,3.9861761125168567,0.2218858565419016
1.84,-1.07,3.75,0.1,0.13,-0.04,1721207095711,10000.0,4.311960111132755,0.1688194301613413,4.311960111132755,0.1688194301613413,1.5066666666666666,0.0633333333333333,5.8914333333333335,0.0082333333333333,2.427227499294892,0.0907377172587746
-2.36,0.27,16.24,-0.11,-0.14,-0.25,1721207095721,10000.0,16.412802929420675,0.3069201850644561,16.412802929420675,0.3069201850644561,4.716666666666666,-0.1666666666666666,101.31963333333331,0.0054333333333333,10.06576541219461,0.0737111479583199
-1.86,1.61,17.41,0.13,0.09,-0.23,1721207095731,10000.0,17.58294059592991,0.2791057147390572,17.58294059592991,0.2791057147390572,5.72,-0.0033333333333333,105.50230000000002,0.0389333333333333,10.271431253725064,0.1973153144926498
-0.94,-0.27,2.65,0.05,0.03,0.06,1721207095741,10000.0,2.824712374738356,0.0836660026534075,2.824712374738356,0.0836660026534075,0.48,0.0466666666666666,3.6439,0.0002333333333333,1.9089002069254437,0.0152752523165194
-0.82,0.77,8.6,-0.02,0.18,0.18,1721207095751,10000.0,8.673251985270577,0.255342906696074,8.673251985270577,0.255342906696074,2.85,0.1133333333333333,25.4289,0.0133333333333333,5.042707606038645,0.1154700538379251
2.83,-2.48,14.3,0.16,0.11,0.0,1721207095761,10000.0,14.78679478453664,0.194164878389476,14.78679478453664,0.194164878389476,4.883333333333334,0.09,73.55423333333334,0.0066999999999999,8.57637646872695,0.0818535277187244
0.7,0.68,10.56,0.21,-0.03,-0.16,1721207095771,10000.0,10.604998821310636,0.2657066051117284,10.604998821310636,0.2657066051117284,3.98,0.0066666666666666,32.4724,0.0352333333333333,5.698455931215052,0.1877054430040145
0.44,0.95,9.8,0.16,0.2,-0.16,1721207095781,10000.0,9.855764810505576,0.30199337741083,9.855764810505576,0.30199337741083,3.73,0.0666666666666666,27.6987,0.0389333333333333,5.262955443474702,0.1973153144926499
-0.09,4.86,14.68,0.16,0.12,-0.1,1721207095791,10000.0,15.4638319959834,0.2236067977499789,15.4638319959834,0.2236067977499789,6.483333333333333,0.06,56.51463333333332,0.0196,7.517621521022013,0.1399999999999999
-1.97,3.52,9.56,0.17,-0.07,0.02,1721207095801,10000.0,10.37616981356801,0.1849324200890693,10.37616981356801,0.1849324200890693,3.7033333333333336,0.04,33.26043333333334,0.0147,5.7671859111123975,0.1212435565298214
-2.09,-0.6,4.87,0.17,0.03,0.07,1721207095811,10000.0,5.333385416412356,0.1862793601019716,5.333385416412356,0.1862793601019716,0.7266666666666667,0.09,13.430433333333331,0.0052,3.664755562562575,0.0721110255092798
1.1,-4.56,6.21,0.05,0.23,0.06,1721207095821,10000.0,7.782525297099907,0.2428991560298224,7.782525297099907,0.2428991560298224,0.9166666666666669,0.1133333333333333,29.02343333333333,0.0102333333333333,5.387340098168421,0.1011599393699567
0.94,0.15,12.15,0.0,0.04,-0.06,1721207095831,10000.0,12.18723102267287,0.0721110255092797,12.18723102267287,0.0721110255092797,4.413333333333333,-0.0066666666666666,45.048033333333336,0.0025333333333333,6.711783170911687,0.0503322295684716
-0.59,0.73,11.49,-0.0,0.07,-0.24,1721207095841,10000.0,11.528273938452363,0.25,11.528273938452363,0.25,3.876666666666667,-0.0566666666666666,43.90773333333333,0.0264333333333333,6.626291069167829,0.1625833119767626
-2.08,0.78,8.76,0.08,0.04,-0.12,1721207095851,10000.0,9.037278351362206,0.1496662954709576,9.037278351362206,0.1496662954709576,2.486666666666667,0.0,31.56093333333333,0.0112,5.617911830327469,0.1058300524425836
-0.83,0.36,10.89,0.07,0.16,0.07,1721207095861,10000.0,10.92751572865489,0.1881488772222678,10.92751572865489,0.1881488772222678,3.473333333333333,0.1,41.609233333333336,0.0026999999999999,6.450521942706136,0.0519615242270663
1.46,1.19,12.51,0.03,0.11,0.05,1721207095871,10000.0,12.650999960477431,0.1244989959798873,12.650999960477431,0.1244989959798873,5.053333333333334,0.0633333333333333,41.71963333333333,0.0017333333333333,6.459073721001591,0.0416333199893226
0.74,4.29,7.66,0.07,-0.11,-0.17,1721207095881,10000.0,8.810635618387586,0.2142428528562855,8.810635618387586,0.2142428528562855,4.23,-0.07,11.9743,0.0156,3.460390151413565,0.1248999599679679
-0.52,-2.03,1.16,-0.14,0.07,-0.23,1721207095891,10000.0,2.395182665267933,0.2782085548648711,2.395182665267933,0.2782085548648711,-0.4633333333333333,-0.1,2.546433333333333,0.0237,1.5957547848379878,0.1539480431834065
-1.47,-0.85,11.96,-0.22,0.25,-0.2,1721207095901,10000.0,12.079942052841147,0.3884584919911006,12.079942052841147,0.3884584919911006,3.2133333333333334,-0.0566666666666666,57.47423333333335,0.0706333333333333,7.581176249984783,0.2657693235370352
-0.23,-1.4,14.69,-0.04,0.05,-0.1,1721207095911,10000.0,14.758353566709262,0.1187434208703791,14.758353566709262,0.1187434208703791,4.353333333333333,-0.03,80.47723333333332,0.0057,8.970910396015185,0.0754983443527075
-0.09,-0.36,12.14,-0.07,0.07,-0.09,1721207095921,10000.0,12.145670010337016,0.1337908816025965,12.145670010337016,0.1337908816025965,3.896666666666667,-0.03,50.98263333333334,0.0076,7.140212415140977,0.0871779788708134
1.04,2.32,11.21,-0.17,0.11,-0.08,1721207095931,10000.0,11.494698778132468,0.2177154105707724,11.494698778132468,0.2177154105707724,4.8566666666666665,-0.0466666666666666,30.68323333333334,0.0204333333333333,5.539244834211008,0.1429452109492771
3.48,1.99,16.17,-0.14,0.24,-0.08,1721207095941,10000.0,16.659513798427614,0.2891366458960192,16.659513798427614,0.2891366458960192,7.213333333333334,0.0066666666666666,60.72143333333334,0.0417333333333333,7.79239586605643,0.2042873792805941
1.27,-1.09,6.55,-0.09,-0.1,-0.25,1721207095951,10000.0,6.760436376447899,0.2839013913315678,6.760436376447899,0.2839013913315678,2.243333333333333,-0.1466666666666666,15.302933333333332,0.0080333333333333,3.9118963858125553,0.089628864398325
-1.99,0.42,9.04,-0.1,0.26,-0.42,1721207095961,10000.0,9.265964601702295,0.5039841267341661,9.265964601702295,0.5039841267341661,2.49,-0.0866666666666666,33.628899999999994,0.1157333333333333,5.7990430244998175,0.3401960219246153
-1.49,0.13,8.71,0.02,0.1,-0.2,1721207095971,10000.0,8.837482673250342,0.2244994432064365,8.837482673250342,0.2244994432064365,2.4500000000000006,-0.0266666666666666,30.0468,0.0241333333333333,5.48149614612653,0.1553490693030806
-2.43,2.4,11.44,-0.21,0.0,0.09,1721207095981,10000.0,11.938948864954568,0.2284731931759172,11.938948864954568,0.2284731931759172,3.803333333333333,-0.04,49.57123333333334,0.0237,7.040684152362847,0.1539480431834065
-1.19,-0.76,11.41,-0.08,0.1,0.05,1721207095991,10000.0,11.497034400226868,0.1374772708486752,11.497034400226868,0.1374772708486752,3.1533333333333338,0.0233333333333333,51.17563333333333,0.0086333333333333,7.153714652775391,0.0929157324317756
1.65,-3.14,13.89,-0.2,0.23,-0.04,1721207096001,10000.0,14.335766460151335,0.3074085229787879,14.335766460151335,0.3074085229787879,4.133333333333334,-0.0033333333333333,77.13043333333334,0.0472333333333333,8.782393371589167,0.2173323108360405
1.12,3.51,13.85,-0.13,0.01,-0.0,1721207096011,10000.0,14.33167819901075,0.130384048104053,14.33167819901075,0.130384048104053,6.16,-0.04,45.7801,0.0061,6.766099319401098,0.0781024967590665
0.82,2.23,7.58,0.02,0.07,-0.04,1721207096021,10000.0,7.94365784761655,0.0830662386291807,7.94365784761655,0.0830662386291807,3.543333333333333,0.0166666666666666,12.718033333333334,0.0030333333333333,3.5662351763916718,0.055075705472861
1.53,-2.69,6.97,-0.08,0.18,-0.19,1721207096031,10000.0,7.62613270275308,0.2736786436680801,7.62613270275308,0.2736786436680801,1.9366666666666663,-0.03,23.45293333333333,0.0361,4.842822868259104,0.19
-0.61,0.43,9.46,0.02,0.02,-0.17,1721207096041,10000.0,9.489394079708148,0.1723368793961408,9.489394079708148,0.1723368793961408,3.0933333333333337,-0.0433333333333333,30.67123333333334,0.0120333333333333,5.538161548143331,0.1096965511460289
-1.07,1.45,10.58,0.1,0.16,-0.07,1721207096051,10000.0,10.732371592523249,0.2012461179749811,10.732371592523249,0.2012461179749811,3.6533333333333338,0.0633333333333333,37.57163333333333,0.0142333333333333,6.129570403652553,0.1193035344544885
-1.08,0.59,10.68,-0.05,0.11,-0.02,1721207096061,10000.0,10.750669746578582,0.1224744871391589,10.750669746578582,0.1224744871391589,3.3966666666666665,0.0133333333333333,40.48243333333333,0.0072333333333333,6.362580713305988,0.0850490054811538
-1.09,2.48,13.85,-0.0,0.14,0.06,1721207096071,10000.0,14.112441319629996,0.1523154621172781,14.112441319629996,0.1523154621172781,5.08,0.0666666666666666,60.87089999999999,0.0049333333333333,7.80198051779162,0.0702376916856849
1.33,3.39,8.11,0.08,0.06,0.09,1721207096081,10000.0,8.890056242791717,0.1345362404707371,8.890056242791717,0.1345362404707371,4.276666666666666,0.0766666666666666,12.081733333333332,0.0002333333333333,3.475878785765311,0.0152752523165194
1.19,-2.03,4.07,-0.1,0.05,0.03,1721207096091,10000.0,4.701265786998221,0.1157583690279022,4.701265786998221,0.1157583690279022,1.0766666666666669,-0.0066666666666666,9.312133333333332,0.0066333333333333,3.051578826334547,0.0814452781524707
0.96,-3.14,12.05,-0.05,0.28,-0.14,1721207096101,10000.0,12.4893434575241,0.3170173496829472,12.4893434575241,0.3170173496829472,3.2900000000000005,0.03,61.7557,0.0489,7.858479496696546,0.2211334438749598
0.94,3.27,14.16,0.08,0.08,-0.2,1721207096111,10000.0,14.563038831232992,0.2297825058615211,14.563038831232992,0.2297825058615211,6.123333333333334,-0.0133333333333333,49.79823333333332,0.0261333333333333,7.05678633184634,0.1616580753730952
-2.81,1.41,8.54,-0.0,-0.04,-0.09,1721207096121,10000.0,9.100318675738778,0.098488578017961,9.100318675738778,0.098488578017961,2.3799999999999994,-0.0433333333333333,32.9113,0.0020333333333333,5.7368371076752736,0.0450924975282289
-2.38,0.31,11.59,0.03,0.26,0.11,1721207096131,10000.0,11.835903007375483,0.2839013913315678,11.835903007375483,0.2839013913315678,3.1733333333333333,0.1333333333333333,54.93923333333333,0.0136333333333333,7.412100467029122,0.1167618659209133
1.19,2.06,12.82,0.06,0.17,0.15,1721207096141,10000.0,13.038868815967128,0.2345207879911715,13.038868815967128,0.2345207879911715,5.3566666666666665,0.1266666666666666,41.96523333333333,0.0034333333333333,6.478057836522713,0.0585946527708231
0.93,3.57,9.42,0.07,0.01,0.03,1721207096151,10000.0,10.116629873628868,0.076811457478686,10.116629873628868,0.076811457478686,4.64,0.0366666666666666,18.8787,0.0009333333333333,4.344962600529491,0.0305505046330389
0.54,-1.9,5.27,0.02,0.12,-0.15,1721207096161,10000.0,5.628010305605347,0.1931320791582796,5.628010305605347,0.1931320791582796,1.3033333333333332,-0.0033333333333333,13.289233333333332,0.0186333333333333,3.645440074028557,0.1365039681962884
-1.22,-4.42,11.87,-0.11,0.19,-0.12,1721207096171,10000.0,12.724845775096844,0.2501999200639361,12.724845775096844,0.2501999200639361,2.0766666666666667,-0.0133333333333333,74.49203333333332,0.0310333333333333,8.630876741868889,0.1761628034896508
-1.73,0.81,15.67,0.15,0.05,0.03,1721207096181,10000.0,15.786003294057682,0.1609347693943108,15.786003294057682,0.1609347693943108,4.916666666666667,0.0766666666666666,88.33853333333334,0.0041333333333333,9.398858086668472,0.0642910050732863
-0.4,2.94,7.74,0.17,0.07,0.1,1721207096191,10000.0,8.289221917647035,0.2092844953645635,8.289221917647035,0.2092844953645635,3.426666666666667,0.1133333333333333,16.742533333333334,0.0026333333333333,4.091764085737756,0.0513160143944688
-1.05,1.26,5.39,0.12,-0.01,0.11,1721207096201,10000.0,5.634021654200487,0.1630950643030009,5.634021654200487,0.1630950643030009,1.8666666666666665,0.0733333333333333,10.644433333333332,0.0052333333333333,3.2625807780549025,0.0723417813807023
0.51,-0.12,14.69,0.02,0.28,-0.0,1721207096211,10000.0,14.699340121243536,0.280713376952364,14.699340121243536,0.280713376952364,5.026666666666666,0.1,70.13423333333334,0.0244,8.37461839926652,0.1562049935181331
-1.02,-0.02,12.39,0.11,-0.17,-0.03,1721207096221,10000.0,12.431930662612304,0.2046948949045872,12.431930662612304,0.2046948949045872,3.7833333333333337,-0.03,55.80603333333335,0.0196,7.470343588706837,0.14
-2.19,0.32,6.75,0.03,0.09,-0.04,1721207096231,10000.0,7.103590641358777,0.10295630140987,7.103590641358777,0.10295630140987,1.6266666666666667,0.0266666666666666,21.26143333333333,0.0042333333333333,4.61101218100032,0.0650640709864771
-0.96,-2.53,9.0,0.01,0.04,0.13,1721207096241,10000.0,9.398005107468286,0.1363818169698585,9.398005107468286,0.1363818169698585,1.836666666666667,0.06,39.101233333333326,0.0039,6.253097898908455,0.0624499799839839
-0.75,-3.11,8.23,0.02,-0.02,0.14,1721207096251,10000.0,8.829920724445945,0.142828568570857,8.829920724445945,0.142828568570857,1.456666666666667,0.0466666666666666,35.80093333333333,0.0069333333333333,5.983388114883852,0.0832666399786453
0.36,0.73,13.33,0.06,0.17,0.03,1721207096261,10000.0,13.35482684275614,0.1827566688249706,13.35482684275614,0.1827566688249706,4.806666666666667,0.0866666666666666,54.51963333333333,0.0054333333333333,7.383741147503299,0.0737111479583199
0.56,1.12,13.46,0.05,0.01,0.03,1721207096271,10000.0,13.518121171227902,0.0591607978309961,13.518121171227902,0.0591607978309961,5.046666666666667,0.03,53.16653333333333,0.0004,7.291538475063636,0.02
-2.3,2.45,11.17,0.03,-0.15,0.03,1721207096281,10000.0,11.66453599591514,0.1558845726811989,11.66453599591514,0.1558845726811989,3.773333333333333,-0.03,46.67363333333333,0.0107999999999999,6.831810399398781,0.1039230484541326
-1.43,3.39,8.56,0.06,0.01,0.11,1721207096291,10000.0,9.317220615612792,0.1256980508997653,9.317220615612792,0.1256980508997653,3.5066666666666677,0.06,24.96023333333333,0.0025,4.996021750686573,0.05
-0.01,-0.25,9.17,-0.06,-0.02,0.2,1721207096301,10000.0,9.173412669230574,0.2097617696340303,9.173412669230574,0.2097617696340303,2.97,0.04,28.8444,0.0196,5.370698278622622,0.1399999999999999
0.15,-2.28,11.49,-0.08,-0.05,0.08,1721207096311,10000.0,11.71499039692308,0.1236931687685298,11.71499039692308,0.1236931687685298,3.12,-0.0166666666666666,54.0189,0.0072333333333333,7.349755097960748,0.0850490054811538
-0.96,0.69,5.71,0.08,-0.15,-0.08,1721207096321,10000.0,5.831106241529132,0.1878829422805593,5.831106241529132,0.1878829422805593,1.8133333333333328,-0.0499999999999999,12.068633333333333,0.0139,3.4739938591386905,0.1178982612255159
0.19,-0.81,10.62,-0.11,0.21,-0.01,1721207096331,10000.0,10.65253960330587,0.2372762103540934,10.65253960330587,0.2372762103540934,3.333333333333333,0.03,40.07163333333333,0.0268,6.330215899425021,0.163707055437449
-1.11,-0.31,17.83,-0.04,-0.23,0.19,1721207096341,10000.0,17.867207392315116,0.3009983388658482,17.867207392315116,0.3009983388658482,5.469999999999999,-0.0266666666666666,114.7372,0.0442333333333333,10.7115451733165,0.2103172207246314
-0.62,6.06,10.19,0.23,-0.16,0.17,1721207096351,10000.0,11.871988039077532,0.3277193921634788,11.871988039077532,0.3277193921634788,5.21,0.08,29.7559,0.0441,5.454896882618406,0.21
1.55,2.39,2.26,0.08,-0.07,0.08,1721207096361,10000.0,3.6362343158822976,0.1330413469565007,3.6362343158822976,0.1330413469565007,2.066666666666667,0.03,0.2044333333333333,0.0075,0.4521430452117264,0.0866025403784438
0.47,-4.51,8.96,-0.14,-0.08,0.05,1721207096371,10000.0,10.042041625087998,0.1688194301613413,10.042041625087998,0.1688194301613413,1.6400000000000003,-0.0566666666666666,46.38690000000001,0.0094333333333333,6.81079290538187,0.0971253485622231
2.11,-0.23,14.84,0.07,0.08,-0.05,1721207096381,10000.0,14.991017310376236,0.1174734012447073,14.991017310376236,0.1174734012447073,5.573333333333333,0.0333333333333333,65.77223333333333,0.0052333333333333,8.110008220299985,0.0723417813807023
1.13,9.89,5.46,0.42,-0.22,-0.13,1721207096391,10000.0,11.353440007328174,0.4916299421312741,11.353440007328174,0.4916299421312741,5.493333333333333,0.0233333333333333,19.185233333333333,0.1200333333333333,4.380095128342915,0.3464582706955245
-0.78,-0.93,0.18,-0.19,0.03,-0.13,1721207096401,10000.0,1.2270696801730536,0.232163735324878,1.2270696801730536,0.232163735324878,-0.51,-0.0966666666666666,0.3626999999999999,0.0129333333333333,0.6022457969965419,0.1137248140615465
-1.89,-8.96,24.68,-0.36,0.1,0.05,1721207096411,10000.0,26.324059337419826,0.3769615364994153,26.324059337419826,0.3769615364994153,4.609999999999999,-0.07,314.59990000000005,0.0637,17.736964227285345,0.2523885892824792
-0.78,6.43,16.71,0.43,-0.18,0.03,1721207096421,10000.0,17.92142293457749,0.4671188285650665,17.92142293457749,0.4671188285650665,7.453333333333333,0.0933333333333333,77.26043333333334,0.0960333333333333,8.78979142718036,0.3098924544633724
0.64,5.62,-4.8,-0.11,-0.03,-0.18,1721207096431,10000.0,7.418490412476113,0.2130727575266251,7.418490412476113,0.2130727575266251,0.4866666666666666,-0.1066666666666666,27.16173333333333,0.0056333333333333,5.211691983735545,0.0750555349946513
-2.42,-3.48,12.15,-0.37,0.09,0.01,1721207096441,10000.0,12.868150605273472,0.3809199390948181,12.868150605273472,0.3809199390948181,2.083333333333333,-0.09,76.28423333333333,0.0603999999999999,8.734084573287193,0.2457641145488901
0.33,-2.82,18.55,0.16,0.12,0.24,1721207096451,10000.0,18.76602781624284,0.3124099870362661,18.76602781624284,0.3124099870362661,5.353333333333334,0.1733333333333333,133.09463333333332,0.0037333333333333,11.536664740440944,0.0611010092660778
2.2,4.57,6.32,0.13,-0.11,0.07,1721207096461,10000.0,8.103536265112906,0.1841195263952197,8.103536265112906,0.1841195263952197,4.363333333333333,0.03,4.275633333333333,0.0156,2.0677604632387507,0.1248999599679679
0.96,1.62,5.15,-0.2,-0.06,-0.14,1721207096471,10000.0,5.483475175470388,0.2513961017995307,5.483475175470388,0.2513961017995307,2.5766666666666667,-0.1333333333333333,5.075433333333335,0.0049333333333333,2.252872240792481,0.0702376916856849
-1.52,-3.3,16.2,-0.38,0.07,-0.23,1721207096481,10000.0,16.602421510129176,0.4496665431183423,16.602421510129176,0.4496665431183423,3.793333333333333,-0.18,116.23613333333331,0.0525,10.781286255977683,0.229128784747792
-2.57,-1.1,16.18,-0.01,-0.1,-0.27,1721207096491,10000.0,16.41972289656558,0.2880972058177586,16.41972289656558,0.2880972058177586,4.17,-0.1266666666666666,108.7203,0.0174333333333333,10.426902704063178,0.1320353488022557
-3.25,-0.86,6.44,-0.03,-0.11,-0.01,1721207096501,10000.0,7.2646885686862035,0.1144552314225959,7.2646885686862035,0.1144552314225959,0.7766666666666667,-0.05,25.48303333333334,0.0028,5.048072239314067,0.0529150262212918
-2.18,2.21,9.73,-0.1,0.04,0.22,1721207096511,10000.0,10.21319734461251,0.2449489742783178,10.21319734461251,0.2449489742783178,3.2533333333333334,0.0533333333333333,36.27843333333333,0.0257333333333333,6.023158086364107,0.1604161255402128
1.08,2.06,8.83,0.0,0.03,0.16,1721207096521,10000.0,9.131204739792006,0.162788205960997,9.131204739792006,0.162788205960997,3.99,0.0633333333333333,17.8093,0.0072333333333333,4.220106633723844,0.0850490054811538
3.68,2.6,11.52,-0.13,0.11,-0.17,1721207096531,10000.0,12.369834275365212,0.2406241883103193,12.369834275365212,0.2406241883103193,5.933333333333334,-0.0633333333333333,23.69973333333333,0.0229333333333333,4.868237189510524,0.1514375558880073
-1.51,3.94,9.21,-0.04,-0.35,-0.28,1721207096541,10000.0,10.13053799163697,0.45,10.13053799163697,0.45,3.88,-0.2233333333333333,28.7323,0.0264333333333333,5.360251859754353,0.1625833119767626
-4.19,-6.93,4.6,-0.24,0.0,-0.13,1721207096551,10000.0,9.313484847252395,0.2729468812791236,9.313484847252395,0.2729468812791236,-2.173333333333334,-0.1233333333333333,36.28543333333333,0.0144333333333333,6.023739148845452,0.1201388086062673
-3.63,-7.12,16.4,-0.27,0.1,0.07,1721207096561,10000.0,18.243664653791463,0.2963106478005811,18.243664653791463,0.2963106478005811,1.8833333333333329,-0.0333333333333333,161.09523333333334,0.0422333333333333,12.692329704720615,0.2055075018906447
-1.64,7.99,9.95,0.21,-0.19,0.27,1721207096571,10000.0,12.8659317579412,0.391279950930277,12.8659317579412,0.391279950930277,5.433333333333334,0.0966666666666666,38.48443333333333,0.0625333333333333,6.203582298425107,0.2500666577801473
2.9,-1.79,-0.29,0.01,-0.07,0.31,1721207096581,10000.0,3.420263147770943,0.3179622619116929,3.420263147770943,0.3179622619116929,0.2733333333333332,0.0833333333333333,5.737033333333333,0.0401333333333333,2.395210498752319,0.2003330560175562
2.69,0.74,14.22,-0.07,0.23,-0.0,1721207096591,10000.0,14.49110416772994,0.2404163056034261,14.49110416772994,0.2404163056034261,5.883333333333333,0.0533333333333333,53.07563333333334,0.0246333333333333,7.285302556059929,0.1569500982265807
2.95,0.89,18.16,0.01,-0.06,-0.24,1721207096601,10000.0,18.41956025533726,0.2475883680627989,18.41956025533726,0.2475883680627989,7.333333333333333,-0.0966666666666666,88.97343333333335,0.0166333333333333,9.432572996448709,0.128970280814354
-2.76,0.66,9.9,-0.12,-0.3,-0.2,1721207096611,10000.0,10.298698946954415,0.38,10.298698946954415,0.38,2.6,-0.2066666666666666,42.8916,0.0081333333333333,6.549167886075299,0.0901849950564578
-3.67,1.27,12.16,-0.2,-0.01,0.08,1721207096621,10000.0,12.76508519360525,0.2156385865284782,12.76508519360525,0.2156385865284782,3.2533333333333334,-0.0433333333333333,65.59743333333333,0.0204333333333333,8.09922424268728,0.1429452109492771
-1.42,1.42,13.74,-0.08,-0.07,0.25,1721207096631,10000.0,13.88597853951964,0.2716615541441225,13.88597853951964,0.2716615541441225,4.58,0.0333333333333333,64.94560000000001,0.0352333333333333,8.058883297330965,0.1877054430040145
0.86,-0.69,7.02,0.03,-0.14,0.22,1721207096641,10000.0,7.106060793435417,0.2624880949681337,7.106060793435417,0.2624880949681337,2.3966666666666665,0.0366666666666666,16.632033333333332,0.0324333333333333,4.078238999045217,0.180092568789868
2.13,-1.78,4.75,-0.02,-0.01,0.0,1721207096651,10000.0,5.501617943841612,0.0223606797749978,5.501617943841612,0.0223606797749978,1.7,-0.01,10.7989,0.0001,3.286167981098958,0.01
1.44,-1.69,11.84,-0.11,-0.02,-0.16,1721207096661,10000.0,12.046381199347794,0.1951922129594313,12.046381199347794,0.1951922129594313,3.863333333333333,-0.0966666666666666,50.16963333333333,0.0050333333333333,7.083052543454222,0.0709459888459758
-0.85,3.77,15.83,0.02,-0.12,-0.15,1721207096671,10000.0,16.294916385179764,0.1931320791582796,16.294916385179764,0.1931320791582796,6.25,-0.0833333333333333,74.16839999999999,0.0082333333333333,8.612107755944534,0.0907377172587746
-0.13,1.11,4.47,0.23,-0.17,0.19,1721207096686,15000.0,4.607591561759787,0.3433656942677879,4.607591561759787,0.3433656942677879,1.8166666666666669,0.0833333333333333,5.664533333333333,0.0485333333333333,2.380028011039646,0.2203028218914441
0.28,-2.01,2.7,0.12,-0.02,0.21,1721207096690,4000.0,3.37764711004569,0.2426932219902319,3.37764711004569,0.2426932219902319,0.3233333333333335,0.1033333333333333,5.547433333333333,0.0134333333333333,2.3552989902204207,0.1159022576714247
2.46,-1.36,10.19,-0.03,0.09,0.07,1721207096700,10000.0,10.570586549477753,0.1178982612255159,10.570586549477753,0.1178982612255159,3.763333333333333,0.0433333333333333,34.62463333333333,0.0041333333333333,5.88426999153959,0.0642910050732863
1.66,1.29,14.99,0.08,-0.14,-0.15,1721207096710,10000.0,15.136703736282875,0.2202271554554524,15.136703736282875,0.2202271554554524,5.98,-0.07,60.9193,0.0169,7.805081677983901,0.13
-0.24,2.89,8.37,0.13,-0.11,-0.15,1721207096720,10000.0,8.858137501755094,0.2269361143582043,8.858137501755094,0.2269361143582043,3.673333333333333,-0.0433333333333333,18.993233333333325,0.0229333333333333,4.358122684520633,0.1514375558880073
0.3,-3.55,9.33,-0.03,0.06,-0.05,1721207096730,10000.0,9.987061629928997,0.0836660026534075,9.987061629928997,0.0836660026534075,2.026666666666667,-0.0066666666666666,43.70963333333333,0.0034333333333333,6.611326140293892,0.0585946527708231
-0.5,-1.43,17.34,0.01,-0.07,-0.06,1721207096740,10000.0,17.406047799543696,0.092736184954957,17.406047799543696,0.092736184954957,5.136666666666667,-0.04,111.90723333333332,0.0019,10.578621523305072,0.0435889894354067
-0.06,2.85,11.18,0.17,-0.07,-0.05,1721207096750,10000.0,11.537699077372402,0.1905255888325765,11.537699077372402,0.1905255888325765,4.656666666666666,0.0166666666666666,34.03243333333333,0.0177333333333333,5.833732367304257,0.1331665623695878
0.86,3.72,3.63,0.15,0.04,-0.05,1721207096760,10000.0,5.268291943315215,0.1630950643030009,5.268291943315215,0.1630950643030009,2.736666666666667,0.0466666666666666,2.6434333333333337,0.0100333333333333,1.6258638729405772,0.1001665280087781
1.83,-3.06,6.67,-0.02,0.06,-0.03,1721207096770,10000.0,7.563160714939224,0.0699999999999999,7.563160714939224,0.0699999999999999,1.8133333333333328,0.0033333333333333,23.668433333333333,0.0024333333333333,4.8650214113951575,0.0493288286231624
0.6,-2.16,11.85,0.08,-0.03,-0.13,1721207096780,10000.0,12.060186565721112,0.1555634918610404,12.060186565721112,0.1555634918610404,3.43,-0.0266666666666666,55.0767,0.0110333333333333,7.421367798458718,0.1050396750439248
-0.17,-0.31,8.67,0.12,-0.01,-0.2,1721207096790,10000.0,8.677205771445092,0.233452350598575,8.677205771445092,0.233452350598575,2.73,-0.03,26.4676,0.0259,5.144667141808107,0.1609347693943108
0.08,-2.81,11.06,-0.11,0.07,-0.11,1721207096800,10000.0,11.411665084465106,0.1705872210923198,11.411665084465106,0.1705872210923198,2.776666666666667,-0.0499999999999999,53.548233333333336,0.0108,7.317665839141149,0.1039230484541326
-0.13,3.19,17.14,0.05,0.02,-0.03,1721207096810,10000.0,17.434810007568192,0.0616441400296897,17.434810007568192,0.0616441400296897,6.733333333333333,0.0133333333333333,83.97963333333333,0.0016333333333333,9.164040229796752,0.0404145188432738
0.14,3.95,5.25,0.21,-0.04,-0.09,1721207096820,10000.0,6.571499067944848,0.231948270094864,6.571499067944848,0.231948270094864,3.1133333333333333,0.0266666666666666,7.0530333333333335,0.0258333333333333,2.655754757754061,0.1607275126832159
1.75,-0.97,9.71,-0.01,0.22,-0.07,1721207096830,10000.0,9.914005245106544,0.2310844001658268,9.914005245106544,0.2310844001658268,3.4966666666666666,0.0466666666666666,30.80373333333334,0.0234333333333333,5.550111109998911,0.1530795000427338
1.31,-2.52,11.94,0.1,-0.08,-0.07,1721207096840,10000.0,12.273145481090005,0.1459451951932642,12.273145481090005,0.1459451951932642,3.5766666666666667,-0.0166666666666666,56.12623333333333,0.0102333333333333,7.49174434516644,0.1011599393699567
0.05,2.38,12.23,0.06,0.1,-0.29,1721207096850,10000.0,12.459526475753403,0.3125699921617557,12.459526475753403,0.3125699921617557,4.886666666666667,-0.0433333333333333,41.80063333333334,0.0460333333333333,6.465340929396789,0.2145538005567212
-0.06,3.84,10.38,0.19,0.09,-0.27,1721207096860,10000.0,11.067682684284003,0.3421987726453734,11.067682684284003,0.3421987726453734,4.72,0.0033333333333333,27.8292,0.0585333333333333,5.2753388516757855,0.2419366308216541
-0.7,1.02,5.47,0.11,0.03,-0.09,1721207096870,10000.0,5.608145861155895,0.1452583904633395,5.608145861155895,0.1452583904633395,1.93,0.0166666666666666,10.1383,0.0101333333333333,3.1840697228546992,0.1006644591369433
-0.86,-2.66,10.05,-0.01,0.18,-0.13,1721207096880,10000.0,10.43157226883848,0.2222611077089286,10.43157226883848,0.2222611077089286,2.176666666666667,0.0133333333333333,47.30203333333334,0.0244333333333333,6.8776473690742055,0.156311654502578
-1.56,-0.83,12.82,0.13,0.04,-0.21,1721207096890,10000.0,12.941209371615932,0.250199920063936,12.941209371615932,0.250199920063936,3.4766666666666666,-0.0133333333333333,65.60663333333335,0.0310333333333333,8.099792178403922,0.1761628034896508
-1.88,3.11,7.89,0.16,0.05,-0.12,1721207096900,10000.0,8.686690969523434,0.206155281280883,8.686690969523434,0.206155281280883,3.04,0.03,23.8669,0.0199,4.885376137003168,0.1410673597966588
-0.97,0.51,9.4,0.02,0.12,-0.01,1721207096910,10000.0,9.463667365244827,0.122065556157337,9.463667365244827,0.122065556157337,2.9800000000000004,0.0433333333333333,31.4599,0.0046333333333333,5.608912550575201,0.0680685928555404
-0.54,1.02,13.06,0.11,-0.02,0.06,1721207096920,10000.0,13.110896231760815,0.1268857754044952,13.110896231760815,0.1268857754044952,4.513333333333334,0.0499999999999999,55.39253333333333,0.0043,7.442616027535838,0.06557438524302
0.35,0.55,9.0,0.01,0.09,-0.03,1721207096930,10000.0,9.023580220732788,0.0953939201416945,9.023580220732788,0.0953939201416945,3.3000000000000003,0.0233333333333333,24.3775,0.0037333333333333,4.93735759288306,0.0611010092660778
0.15,0.03,9.8,-0.07,0.03,-0.12,1721207096940,10000.0,9.801193804838269,0.1421267040355189,9.801193804838269,0.1421267040355189,3.3266666666666667,-0.0533333333333333,31.43163333333334,0.0058333333333333,5.606392185116319,0.0763762615825973
-0.51,-0.79,11.65,-0.13,0.1,-0.15,1721207096950,10000.0,11.687886891992068,0.2222611077089286,11.687886891992068,0.2222611077089286,3.45,-0.06,50.44960000000001,0.0193,7.102788184931324,0.138924439894498
-1.67,-0.31,13.09,-0.01,0.01,-0.12,1721207096960,10000.0,13.199738633776049,0.1208304597359457,13.199738633776049,0.1208304597359457,3.703333333333333,-0.04,66.54453333333333,0.0048999999999999,8.157483272022894,0.0699999999999999
-0.31,1.66,9.64,0.11,0.04,0.05,1721207096970,10000.0,9.786792119995193,0.1272792206135785,9.786792119995193,0.1272792206135785,3.6633333333333336,0.0666666666666666,27.76063333333333,0.0014333333333333,5.268836051096422,0.0378593889720018
0.79,4.39,8.94,0.05,0.04,0.0,1721207096980,10000.0,9.990985937333711,0.0640312423743284,9.990985937333711,0.0640312423743284,4.706666666666666,0.03,16.680833333333332,0.0007,4.084217591330478,0.0264575131106459
1.35,0.75,7.9,0.01,-0.02,-0.1,1721207096990,10000.0,8.0495341480113,0.1024695076595959,8.0495341480113,0.1024695076595959,3.333333333333333,-0.0366666666666666,15.730833333333331,0.0032333333333333,3.966211458474363,0.0568624070307732
0.81,-4.23,6.78,-0.14,0.01,-0.17,1721207097000,10000.0,8.032272405739239,0.220454076850486,8.032272405739239,0.220454076850486,1.12,-0.1,30.37710000000001,0.0093,5.511542433838281,0.0964365076099295
-1.51,1.09,11.8,-0.01,-0.01,-0.14,1721207097010,10000.0,11.946053741717389,0.1407124727947029,11.946053741717389,0.1407124727947029,3.793333333333333,-0.0533333333333333,49.77003333333335,0.0056333333333333,7.054787972245045,0.0750555349946513
0.05,2.25,11.39,0.05,0.11,-0.07,1721207097020,10000.0,11.610215329613832,0.1396424004376894,11.610215329613832,0.1396424004376894,4.5633333333333335,0.03,36.16253333333334,0.0084,6.01352919119325,0.0916515138991168
0.21,-2.79,6.56,-0.06,-0.03,-0.04,1721207097030,10000.0,7.131745929293892,0.0781024967590665,7.131745929293892,0.0781024967590665,1.3266666666666664,-0.0433333333333333,22.79083333333333,0.0002333333333333,4.7739745844875765,0.0152752523165194
0.61,-0.84,13.55,-0.16,0.2,-0.1,1721207097040,10000.0,13.589709341998452,0.2749545416973504,13.589709341998452,0.2749545416973504,4.44,-0.02,62.7697,0.0372,7.92273311427313,0.1928730152198591
1.06,6.46,14.53,0.03,-0.01,-0.06,1721207097050,10000.0,15.936627623183018,0.0678232998312526,15.936627623183018,0.0678232998312526,7.349999999999999,-0.0133333333333333,45.9543,0.0020333333333333,6.778960097242054,0.0450924975282289
1.38,-1.26,7.01,-0.18,0.06,-0.09,1721207097060,10000.0,7.254798412085617,0.21,7.254798412085617,0.21,2.3766666666666665,-0.0699999999999999,17.84323333333333,0.0147,4.2241251559741135,0.1212435565298214
-0.25,-4.08,10.67,-0.1,0.02,-0.22,1721207097070,10000.0,11.426189216007232,0.2424871130596428,11.426189216007232,0.2424871130596428,2.1133333333333333,-0.0999999999999999,58.57963333333333,0.0144,7.653733293846431,0.12
-1.19,0.95,8.62,0.06,-0.05,-0.08,1721207097080,10000.0,8.753456460164749,0.1118033988749894,8.753456460164749,0.1118033988749894,2.793333333333333,-0.0233333333333333,26.60743333333333,0.0054333333333333,5.15823936371058,0.0737111479583199
0.1,0.53,7.79,-0.15,0.07,0.08,1721207097090,10000.0,7.808649050892222,0.1838477631085023,7.808649050892222,0.1838477631085023,2.806666666666666,4.625929269271485e-18,18.671433333333333,0.0169,4.321045398203233,0.13
0.48,3.02,13.75,-0.04,0.11,-0.1,1721207097100,10000.0,14.085925599689926,0.1539480431834065,14.085925599689926,0.1539480431834065,5.75,-0.01,49.6129,0.0117,7.043642523581105,0.1081665382639196
0.44,0.24,9.78,-0.03,-0.03,-0.27,1721207097110,10000.0,9.792834114800474,0.2733130073743289,9.792834114800474,0.2733130073743289,3.4866666666666664,-0.11,29.71453333333333,0.0192,5.451103863744786,0.1385640646055102
-2.05,-5.86,8.59,-0.26,-0.07,-0.06,1721207097120,10000.0,10.59859424640834,0.2758622844826744,10.59859424640834,0.2758622844826744,0.2266666666666665,-0.13,56.088033333333335,0.0127,7.489194438211184,0.1126942766958464
-0.37,0.07,14.08,-0.07,0.22,0.08,1721207097130,10000.0,14.08503461124608,0.2443358344574123,14.08503461124608,0.2443358344574123,4.593333333333333,0.0766666666666666,67.54603333333334,0.0210333333333333,8.218639384553464,0.1450287327853806
1.86,4.83,11.07,0.05,0.02,-0.07,1721207097140,10000.0,12.220204580938898,0.0883176086632784,12.220204580938898,0.0883176086632784,5.920000000000001,0.0,22.0971,0.0039,4.700755258466452,0.0624499799839839
-0.79,4.18,6.81,0.1,-0.06,-0.25,1721207097150,10000.0,8.029483171412714,0.2758622844826744,8.029483171412714,0.2758622844826744,3.4,-0.0699999999999999,14.896299999999997,0.0306999999999999,3.859572515188696,0.1752141546793523
-1.47,-6.38,4.12,-0.0,-0.04,-0.16,1721207097160,10000.0,7.735612451512808,0.1649242250247064,7.735612451512808,0.1649242250247064,-1.2433333333333332,-0.0666666666666666,27.601033333333334,0.0069333333333333,5.253668559524224,0.0832666399786453
-0.62,0.55,14.44,-0.02,0.27,0.02,1721207097170,10000.0,14.463765069994745,0.2714774392099645,14.463765069994745,0.2714774392099645,4.79,0.09,70.18409999999999,0.0247,8.377595120319434,0.1571623364550171
0.59,3.95,14.45,0.02,-0.08,-0.04,1721207097180,10000.0,14.991767740997055,0.0916515138991168,14.991767740997055,0.0916515138991168,6.329999999999999,-0.0333333333333333,52.2732,0.0025333333333333,7.2300207468582,0.0503322295684716
-1.61,0.84,8.49,-0.03,-0.11,-0.08,1721207097190,10000.0,8.682038931034576,0.1392838827718412,8.682038931034576,0.1392838827718412,2.5733333333333333,-0.0733333333333333,27.75583333333333,0.0016333333333333,5.268380522829889,0.0404145188432738
-0.94,-1.69,8.41,0.05,0.12,-0.12,1721207097200,10000.0,8.629472753303066,0.1769180601295413,8.629472753303066,0.1769180601295413,1.9266666666666667,0.0166666666666666,31.66583333333333,0.0152333333333333,5.627240294614523,0.1234233905438241
-0.94,5.43,10.41,0.24,0.06,-0.04,1721207097210,10000.0,11.778650177333564,0.2505992817228333,11.778650177333564,0.2505992817228333,4.966666666666667,0.0866666666666666,32.36663333333333,0.0201333333333333,5.689168070406545,0.1418919776919517
-0.55,-0.74,5.19,0.02,-0.04,0.04,1721207097220,10000.0,5.271261708547585,0.06,5.271261708547585,0.06,1.3,0.0066666666666666,11.358100000000002,0.0017333333333333,3.3701780368401906,0.0416333199893226
-0.19,-3.96,16.05,-0.22,0.12,0.01,1721207097230,10000.0,16.532398495076265,0.250798724079689,16.532398495076265,0.250798724079689,3.966666666666667,-0.03,113.05843333333334,0.0301,10.632893930315175,0.1734935157289747
0.97,0.13,16.17,0.12,-0.07,-0.05,1721207097240,10000.0,16.199589500971932,0.147648230602334,16.199589500971932,0.147648230602334,5.756666666666668,-4.625929269271485e-18,81.50453333333334,0.0109,9.027986117254132,0.1044030650891055
0.67,1.07,5.63,0.09,-0.05,-0.07,1721207097250,10000.0,5.7698093556026615,0.1244989959798873,5.7698093556026615,0.1244989959798873,2.4566666666666666,-0.01,7.592533333333334,0.0076,2.7554551953050037,0.0871779788708134
-1.19,2.05,10.63,0.11,0.09,-0.12,1721207097260,10000.0,10.891074327172689,0.1860107523773827,10.891074327172689,0.1860107523773827,3.83,0.0266666666666666,37.3044,0.0162333333333333,6.107732803585959,0.1274100990241093
-0.53,2.09,8.93,0.24,-0.07,-0.11,1721207097270,10000.0,9.18661526352334,0.2731300056749532,9.18661526352334,0.2731300056749532,3.4966666666666666,0.0199999999999999,23.85693333333333,0.0366999999999999,4.884355979382884,0.1915724406066801
-1.63,0.27,8.32,0.11,-0.01,-0.08,1721207097280,10000.0,8.482464264587268,0.1363818169698585,8.482464264587268,0.1363818169698585,2.3200000000000003,0.0066666666666666,27.902500000000003,0.0092333333333333,5.282281703960893,0.0960902353693304
-0.9,-3.83,9.25,-0.07,0.01,-0.06,1721207097290,10000.0,10.05193513707684,0.092736184954957,10.05193513707684,0.092736184954957,1.5066666666666666,-0.04,47.115633333333335,0.0019,6.8640828472078725,0.0435889894354067
-0.4,-2.4,14.4,-0.07,0.04,-0.01,1721207097300,10000.0,14.604109010822947,0.0812403840463596,14.604109010822947,0.0812403840463596,3.866666666666667,-0.0133333333333333,84.21333333333334,0.0030333333333333,9.17678229737054,0.055075705472861
0.68,2.54,12.79,0.08,-0.07,-0.04,1721207097310,10000.0,13.057492102237704,0.1135781669160054,13.057492102237704,0.1135781669160054,5.336666666666666,-0.01,42.52903333333333,0.0063,6.521428780055283,0.0793725393319377
-0.25,4.22,7.76,0.22,-0.1,-0.05,1721207097320,10000.0,8.836769771811417,0.2467792535850613,8.836769771811417,0.2467792535850613,3.91,0.0233333333333333,16.112099999999998,0.0296333333333333,4.0139880418357,0.1721433511156714
-0.37,-1.12,7.49,0.07,0.07,-0.09,1721207097330,10000.0,7.582308355639462,0.1337908816025965,7.582308355639462,0.1337908816025965,2.0,0.0166666666666666,22.745700000000003,0.0085333333333333,4.76924522330316,0.0923760430703401
-0.93,-3.74,10.4,-0.03,-0.08,-0.11,1721207097340,10000.0,11.091100035614142,0.1392838827718412,11.091100035614142,0.1392838827718412,1.91,-0.0733333333333333,56.0341,0.0016333333333333,7.485592828894716,0.0404145188432738
-0.27,3.19,14.08,0.07,0.07,-0.1,1721207097350,10000.0,14.439369792342044,0.1407124727947029,14.439369792342044,0.1407124727947029,5.666666666666667,0.0133333333333333,56.08103333333334,0.0096333333333333,7.4887270836460145,0.0981495457622363
-0.25,3.72,8.94,0.1,-0.17,-0.08,1721207097360,10000.0,9.686304764976168,0.2128379665379276,9.686304764976168,0.2128379665379276,4.136666666666667,-0.05,21.24423333333333,0.0189,4.609146703385924,0.1374772708486752
-2.44,-3.39,7.95,0.03,-0.06,-0.09,1721207097370,10000.0,8.980434287939532,0.1122497216032182,8.980434287939532,0.1122497216032182,0.7066666666666667,-0.04,39.57503333333334,0.0039,6.290869044363691,0.0624499799839839
-1.58,-2.23,9.67,0.18,-0.01,-0.01,1721207097380,10000.0,10.04879097205231,0.1805547008526778,10.04879097205231,0.1805547008526778,1.9533333333333327,0.0533333333333333,44.76583333333333,0.0120333333333333,6.690727414364849,0.1096965511460289
0.8,6.02,7.46,0.31,-0.05,0.18,1721207097390,10000.0,9.61935548776528,0.3619392214170772,9.61935548776528,0.3619392214170772,4.76,0.1466666666666666,12.2796,0.0332333333333333,3.504226020107721,0.1823001188516708
2.89,3.51,8.86,0.06,0.07,0.06,1721207097400,10000.0,9.95850390369959,0.11,9.95850390369959,0.11,5.086666666666667,0.0633333333333333,10.77463333333333,3.33333333333334e-05,3.2824736607219456,0.0057735026918962
1.33,-0.91,16.64,-0.0,-0.09,-0.25,1721207097410,10000.0,16.71785273293194,0.2657066051117284,16.71785273293194,0.2657066051117284,5.686666666666667,-0.1133333333333333,91.23603333333334,0.0160333333333333,9.551755510550578,0.1266227994214838
-0.91,2.06,12.86,0.24,-0.15,-0.27,1721207097420,10000.0,13.055699904639352,0.3911521443121589,13.055699904639352,0.3911521443121589,4.67,-0.06,52.5123,0.0711,7.246537104024238,0.2666458325194676
-2.15,-0.57,4.11,0.01,-0.12,-0.11,1721207097430,10000.0,4.673275082851426,0.1630950643030009,4.673275082851426,0.1630950643030009,0.4633333333333335,-0.0733333333333333,10.597733333333334,0.0052333333333333,3.255416000042596,0.0723417813807023
-0.98,0.52,12.43,-0.03,0.12,-0.03,1721207097440,10000.0,12.479411043795295,0.1272792206135785,12.479411043795295,0.1272792206135785,3.99,0.02,53.9877,0.0075,7.347632271691337,0.0866025403784438
0.32,2.73,8.26,0.25,-0.16,0.08,1721207097450,10000.0,8.705337443201154,0.3074085229787879,8.705337443201154,0.3074085229787879,3.77,0.0566666666666666,16.5721,0.0424333333333333,4.070884424790269,0.205993527406405
0.62,-0.8,4.14,0.09,0.06,0.0,1721207097460,10000.0,4.261924447946021,0.1081665382639196,4.261924447946021,0.1081665382639196,1.3199999999999998,0.0499999999999999,6.4684,0.0021,2.543304936495032,0.0458257569495584
3.03,-2.51,15.19,-0.0,0.19,-0.13,1721207097470,10000.0,15.691306510294163,0.2302172886644267,15.691306510294163,0.2302172886644267,5.236666666666666,0.02,81.97453333333333,0.0259,9.053978867510866,0.1609347693943108
1.51,5.54,16.19,0.15,-0.12,-0.2,1721207097480,10000.0,17.178119803983204,0.277308492477241,17.178119803983204,0.277308492477241,7.746666666666667,-0.0566666666666666,57.52763333333336,0.0336333333333333,7.584697313230987,0.1833939293797189
-0.7,5.21,9.81,-0.01,-0.09,-0.21,1721207097490,10000.0,11.129699007610224,0.2286919325205854,11.129699007610224,0.2286919325205854,4.773333333333333,-0.1033333333333333,27.758033333333337,0.0101333333333333,5.268589311507715,0.1006644591369433
-2.26,1.71,7.97,0.03,-0.12,-0.04,1721207097500,10000.0,8.458876994022315,0.13,8.458876994022315,0.13,2.473333333333333,-0.0433333333333333,26.60023333333333,0.0056333333333333,5.157541403937862,0.0750555349946513
-0.32,-2.95,7.44,-0.01,0.07,0.05,1721207097510,10000.0,8.009900124221275,0.0866025403784438,8.009900124221275,0.0866025403784438,1.39,0.0366666666666666,29.1811,0.0017333333333333,5.401953350409461,0.0416333199893226
0.93,-4.75,8.97,-0.15,0.0,-0.01,1721207097520,10000.0,10.192561012817142,0.150332963783729,10.192561012817142,0.150332963783729,1.7166666666666668,-0.0533333333333333,47.52373333333334,0.0070333333333333,6.893745957992167,0.0838649708360608
0.35,3.67,15.17,0.0,0.02,-0.19,1721207097530,10000.0,15.611543805786791,0.191049731745428,15.611543805786791,0.191049731745428,6.396666666666666,-0.0566666666666666,60.484133333333325,0.0134333333333333,7.777154578207464,0.1159022576714247
-0.06,-0.6,6.7,-0.02,-0.11,-0.16,1721207097540,10000.0,6.727079604107566,0.1951922129594313,6.727079604107566,0.1951922129594313,2.013333333333333,-0.0966666666666666,16.546533333333336,0.0050333333333333,4.067743026954055,0.0709459888459758
-2.86,-0.09,8.88,-0.07,0.01,-0.11,1721207097550,10000.0,9.329635577020143,0.1307669683062202,9.329635577020143,0.1307669683062202,1.9766666666666672,-0.0566666666666666,37.66023333333334,0.0037333333333333,6.136793408070157,0.0611010092660778
0.06,-2.38,9.8,-0.03,0.12,-0.0,1721207097560,10000.0,10.085038423327896,0.1236931687685298,10.085038423327896,0.1236931687685298,2.4933333333333336,0.03,41.528933333333335,0.0062999999999999,6.444294634274052,0.0793725393319377
0.31,2.51,10.32,0.01,-0.03,0.05,1721207097570,10000.0,10.625375287489849,0.0591607978309961,10.625375287489849,0.0591607978309961,4.38,0.01,27.67270000000001,0.0016,5.260484768536071,0.04
0.43,0.52,3.18,-0.12,-0.06,-0.07,1721207097580,10000.0,3.250799901562691,0.1513274595042155,3.250799901562691,0.1513274595042155,1.3766666666666667,-0.0833333333333333,2.4410333333333334,0.0010333333333333,1.5623806621093763,0.0321455025366431
-1.45,2.2,11.65,-0.21,0.02,-0.21,1721207097590,10000.0,11.944245476378992,0.2976575213227443,11.944245476378992,0.2976575213227443,4.133333333333334,-0.1333333333333333,45.70583333333333,0.0176333333333333,6.760608946931728,0.1327905619136139
-1.13,-2.55,13.09,-0.17,-0.03,-0.09,1721207097600,10000.0,13.383852210779974,0.1946792233393178,13.383852210779974,0.1946792233393178,3.1366666666666667,-0.0966666666666666,74.80573333333334,0.0049333333333333,8.649030774215879,0.0702376916856849
-0.52,-5.25,13.19,-0.38,0.06,0.0,1721207097610,10000.0,14.205949457885591,0.3847076812334269,14.205949457885591,0.3847076812334269,2.473333333333333,-0.1066666666666666,91.72843333333331,0.0569333333333333,9.577496193334316,0.238607068908977
-1.44,0.86,12.72,-0.22,-0.21,-0.06,1721207097620,10000.0,12.830105221704146,0.31,12.830105221704146,0.31,4.046666666666667,-0.1633333333333333,57.74253333333333,0.0080333333333333,7.598850790305948,0.089628864398325
-1.49,0.75,1.86,-0.12,-0.15,-0.06,1721207097630,10000.0,2.498439512976049,0.201246117974981,2.498439512976049,0.201246117974981,0.3733333333333333,-0.11,2.912033333333333,0.0021,1.706468087405485,0.0458257569495584
1.2,-4.86,10.21,-0.24,0.33,0.01,1721207097640,10000.0,11.371178478944037,0.408166632639171,11.371178478944037,0.408166632639171,2.1833333333333336,0.0333333333333333,57.50143333333335,0.0816333333333333,7.582969954663763,0.285715476187996
1.37,1.92,17.16,-0.01,0.01,0.03,1721207097650,10000.0,17.32134232673669,0.033166247903554,17.32134232673669,0.033166247903554,6.816666666666666,0.01,80.31403333333333,0.0003999999999999,8.96180971307321,0.02
-1.09,4.77,5.09,0.1,-0.24,-0.14,1721207097660,10000.0,7.060389507668822,0.295296461204668,7.060389507668822,0.295296461204668,2.9233333333333333,-0.0933333333333333,12.105733333333331,0.0305333333333333,3.479329437310203,0.1747378989610821
0.66,-3.99,6.94,-0.41,0.2,-0.2,1721207097670,10000.0,8.032390677749682,0.4980963762164908,8.032390677749682,0.4980963762164908,1.2033333333333334,-0.1366666666666666,30.087633333333336,0.0960333333333333,5.485219533740954,0.3098924544633724
-1.8,6.06,21.83,-0.18,-0.24,-0.03,1721207097680,10000.0,22.72691136076348,0.3014962686336267,22.72691136076348,0.3014962686336267,8.696666666666665,-0.15,144.8082333333333,0.0116999999999999,12.033629266905862,0.1081665382639196
0.5,0.96,8.73,0.11,-0.11,0.08,1721207097690,10000.0,8.796846025707168,0.174928556845359,8.796846025707168,0.174928556845359,3.396666666666667,0.0266666666666666,21.386233333333337,0.0142333333333333,4.624525200853958,0.1193035344544885
1.72,-7.2,3.57,-0.16,0.05,-0.06,1721207097700,10000.0,8.218473094194566,0.1780449381476485,8.218473094194566,0.1780449381476485,-0.6366666666666668,-0.0566666666666666,33.16363333333334,0.0110333333333333,5.75878748812051,0.1050396750439248
0.3,-2.0,13.66,-0.17,0.01,-0.17,1721207097710,10000.0,13.808895683580204,0.2406241883103193,13.808895683580204,0.2406241883103193,3.986666666666667,-0.11,71.50253333333333,0.0108,8.45591706045733,0.1039230484541326
0.54,4.73,16.02,0.03,0.05,-0.19,1721207097720,10000.0,16.71241753906358,0.1987460691435179,16.71241753906358,0.1987460691435179,7.096666666666667,-0.0366666666666666,64.10843333333332,0.0177333333333333,8.006774215208852,0.1331665623695878
-0.41,6.2,8.85,0.22,-0.1,-0.16,1721207097730,10000.0,10.813445334397358,0.2898275349237887,10.813445334397358,0.2898275349237887,4.88,-0.0133333333333333,22.7437,0.0417333333333333,4.769035541909916,0.2042873792805941
0.16,1.51,3.34,0.2,0.05,-0.08,1721207097740,10000.0,3.66896443155286,0.2211334438749598,3.66896443155286,0.2211334438749598,1.67,0.0566666666666666,2.5473,0.0196333333333333,1.596026315572522,0.140118997046558
0.12,-5.0,8.19,-0.02,0.03,-0.07,1721207097750,10000.0,9.596379525633612,0.0787400787401181,9.596379525633612,0.0787400787401181,1.1033333333333333,-0.02,44.219233333333335,0.0025,6.649754381428936,0.05
-0.42,-0.94,13.83,-0.01,0.05,-0.21,1721207097760,10000.0,13.86826953877087,0.216101827849743,13.86826953877087,0.216101827849743,4.156666666666667,-0.0566666666666666,70.24763333333333,0.0185333333333333,8.381386122434243,0.1361371857110809
-0.16,2.95,5.51,0.14,-0.08,-0.14,1721207097770,10000.0,6.252055661940319,0.2135415650406262,6.252055661940319,0.2135415650406262,2.766666666666667,-0.0266666666666666,8.062433333333335,0.0217333333333333,2.839442433530452,0.1474222959166398
0.45,-2.52,13.76,-0.16,0.17,-0.06,1721207097780,10000.0,13.996088739358578,0.241039415863879,13.996088739358578,0.241039415863879,3.8966666666666665,-0.0166666666666666,75.16923333333332,0.0286333333333333,8.670019223354313,0.1692138686199607
1.76,5.9,22.47,0.17,0.08,-0.04,1721207097790,10000.0,23.29825100731812,0.1920937271229854,23.29825100731812,0.1920937271229854,10.043333333333331,0.0699999999999999,120.10143333333332,0.0111,10.959079949217148,0.1053565375285273
1.43,-0.64,4.39,0.24,-0.14,-0.24,1721207097800,10000.0,4.661180108084218,0.3671511950137164,4.661180108084218,0.3671511950137164,1.7266666666666666,-0.0466666666666666,6.391233333333332,0.0641333333333333,2.5280888697459454,0.2532455988429677
-2.26,-3.13,5.41,-0.11,0.14,-0.38,1721207097810,10000.0,6.6462470613121205,0.4196427051671457,6.6462470613121205,0.4196427051671457,0.0066666666666668,-0.1166666666666666,22.08623333333333,0.0676333333333333,4.699599273696996,0.2600640946638604
-2.17,3.14,19.44,0.07,0.07,-0.14,1721207097820,10000.0,19.811160995761963,0.1714642819948224,19.811160995761963,0.1714642819948224,6.803333333333334,0.0,126.81303333333332,0.0147,11.261129309857576,0.1212435565298214
-0.61,2.81,8.21,0.31,-0.09,0.1,1721207097830,10000.0,8.698982699143619,0.337934904974316,8.698982699143619,0.337934904974316,3.47,0.1066666666666666,19.7748,0.0400333333333333,4.446886551285068,0.2000833159794522
2.28,-4.47,2.36,0.15,0.24,0.0,1721207097840,10000.0,5.545169068657871,0.2830194339616981,5.545169068657871,0.2830194339616981,0.0566666666666666,0.13,15.369633333333333,0.0147,3.920412393273612,0.1212435565298214
3.35,-1.06,10.96,0.04,0.07,-0.23,1721207097850,10000.0,11.509461325361844,0.2437211521390788,11.509461325361844,0.2437211521390788,4.416666666666667,-0.04,36.97343333333333,0.0273,6.080578371613455,0.165227116418583
0.06,2.84,10.69,0.12,-0.01,-0.4,1721207097860,10000.0,11.060980969154588,0.4177319714841085,11.060980969154588,0.4177319714841085,4.53,-0.0966666666666666,30.3913,0.0732333333333333,5.512830488959369,0.2706165799305973
-1.91,1.42,13.57,0.12,0.28,-0.41,1721207097870,10000.0,13.777133228651016,0.5107837115648853,13.777133228651016,0.5107837115648853,4.36,-0.0033333333333333,66.39030000000001,0.1304333333333333,8.14802430040559,0.3611555528208494
-2.01,-0.66,11.93,0.22,0.03,-0.06,1721207097880,10000.0,12.116129745095996,0.2299999999999999,12.116129745095996,0.2299999999999999,3.0866666666666664,0.0633333333333333,59.10903333333333,0.0204333333333333,7.688239937289505,0.1429452109492771
-0.75,-2.14,7.81,0.13,0.07,0.15,1721207097890,10000.0,8.132539578753983,0.2104756517984919,8.132539578753983,0.2104756517984919,1.64,0.1166666666666666,29.0347,0.0017333333333333,5.388385658061234,0.0416333199893226
2.11,2.95,12.65,0.13,0.18,-0.07,1721207097900,10000.0,13.159677047709035,0.2328089345364563,13.159677047709035,0.2328089345364563,5.903333333333333,0.08,34.31453333333334,0.0175,5.8578608154627005,0.1322875655532295
2.8,5.44,6.79,0.33,0.06,-0.25,1721207097910,10000.0,9.139896060678153,0.4183300132670378,9.139896060678153,0.4183300132670378,5.010000000000001,0.0466666666666666,4.1187000000000005,0.0842333333333333,2.0294580557380337,0.2902297940138698
0.81,-1.51,3.2,0.05,0.14,-0.36,1721207097920,10000.0,3.629903579986664,0.3894868418830089,3.629903579986664,0.3894868418830089,0.8333333333333334,-0.0566666666666666,5.546433333333333,0.0710333333333333,2.355086693379531,0.2665207934352089
-2.35,-4.05,18.68,-0.05,0.13,-0.34,1721207097930,10000.0,19.257917852145905,0.3674234614174767,19.257917852145905,0.3674234614174767,4.093333333333333,-0.0866666666666666,160.30063333333334,0.0562333333333333,12.660988639649483,0.2371356854910988
-3.53,1.98,12.51,0.31,0.01,-0.17,1721207097940,10000.0,13.148437169489004,0.3536947836765479,13.148437169489004,0.3536947836765479,3.6533333333333338,0.0499999999999999,66.42043333333334,0.0588,8.149873209647701,0.2424871130596428
-1.07,4.93,6.42,0.02,0.23,-0.01,1721207097950,10000.0,8.164937231846917,0.2310844001658268,8.164937231846917,0.2310844001658268,3.4266666666666663,0.08,15.720033333333332,0.0171,3.964849723928176,0.1307669683062202
1.19,1.45,9.53,-0.04,0.14,-0.04,1721207097960,10000.0,9.712852310212485,0.150996688705415,9.712852310212485,0.150996688705415,4.056666666666666,0.02,22.48493333333333,0.0108,4.741828058178969,0.1039230484541326
1.33,-4.04,7.04,-0.04,0.11,-0.25,1721207097970,10000.0,8.22508966516475,0.2760434748368452,8.22508966516475,0.2760434748368452,1.4433333333333334,-0.06,30.70123333333333,0.0327,5.540869366203586,0.1808314132002512
-1.38,-1.3,13.51,-0.07,0.21,-0.47,1721207097980,10000.0,13.642378824823773,0.5195190083144215,13.642378824823773,0.5195190083144215,3.61,-0.1099999999999999,73.5091,0.1167999999999999,8.57374480609261,0.3417601498127012
-2.94,4.41,14.36,0.18,0.09,-0.33,1721207097990,10000.0,15.306903671219729,0.3865229618017538,15.306903671219729,0.3865229618017538,5.276666666666666,-0.02,75.38583333333332,0.0741,8.682501559650497,0.272213151776324
-2.64,2.42,4.56,0.06,0.12,-0.04,1721207098000,10000.0,5.798241112613376,0.1399999999999999,5.798241112613376,0.1399999999999999,1.4466666666666663,0.0466666666666666,13.670533333333337,0.0065333333333333,3.697368433539365,0.0808290376865476
-0.44,0.93,10.93,-0.11,0.18,0.08,1721207098010,10000.0,10.978314989104655,0.2256102834535695,10.978314989104655,0.2256102834535695,3.806666666666666,0.0499999999999999,38.52563333333333,0.0217,6.20690207215591,0.1473091986265623
1.48,-0.84,11.17,0.11,0.03,-0.02,1721207098020,10000.0,11.298889325947044,0.1157583690279022,11.298889325947044,0.1157583690279022,3.936666666666667,0.04,40.58643333333333,0.0043,6.370748255372624,0.06557438524302
1.46,-0.83,5.48,0.06,0.12,-0.28,1721207098030,10000.0,5.731570465413472,0.3104834939252004,5.731570465413472,0.3104834939252004,2.036666666666666,-0.0333333333333333,10.203433333333336,0.0465333333333333,3.1942813484934813,0.2157158624981791
-1.09,1.83,9.7,0.01,0.06,-0.29,1721207098040,10000.0,9.931112727182184,0.296310647800581,9.931112727182184,0.296310647800581,3.48,-0.0733333333333333,31.147899999999996,0.0358333333333333,5.581030370818636,0.1892969448600091
-1.47,2.77,11.9,0.02,0.15,-0.17,1721207098050,10000.0,12.306250444388006,0.2275961335348208,12.306250444388006,0.2275961335348208,4.4,-9.251858538542969e-18,46.6819,0.0259,6.832415385498748,0.1609347693943108
-0.88,1.4,6.07,-0.0,0.02,0.02,1721207098060,10000.0,6.291208151062879,0.0282842712474619,6.291208151062879,0.0282842712474619,2.1966666666666668,0.0133333333333333,12.551633333333337,0.0001333333333333,3.5428284369036747,0.0115470053837925
0.26,-1.88,7.28,-0.21,0.16,-0.02,1721207098070,10000.0,7.523323733563511,0.2647640458974745,7.523323733563511,0.2647640458974745,1.8866666666666667,-0.0233333333333333,22.960933333333333,0.0342333333333333,4.791756810746278,0.1850225211517055
2.27,-5.49,11.66,-0.25,0.16,-0.19,1721207098080,10000.0,13.086198836942682,0.3524202037341219,13.086198836942682,0.3524202037341219,2.813333333333333,-0.0933333333333333,73.75203333333334,0.0490333333333333,8.587900403086504,0.221434715736565
0.5,-1.07,10.6,-0.06,-0.0,-0.27,1721207098090,10000.0,10.665594216920123,0.2765863337187866,10.665594216920123,0.2765863337187866,3.3433333333333333,-0.11,40.110633333333325,0.0201,6.333295613922765,0.1417744687875782
-0.45,-0.74,10.67,-0.15,0.21,-0.2,1721207098100,10000.0,10.705092246216283,0.3264965543462901,10.705092246216283,0.3264965543462901,3.16,-0.0466666666666666,42.3211,0.0500333333333333,6.505466931742871,0.2236813209307682
-1.64,2.55,14.63,-0.04,0.05,-0.07,1721207098110,10000.0,14.94085004275192,0.0948683298050513,14.94085004275192,0.0948683298050513,5.180000000000001,-0.02,71.3659,0.0039,8.447834041930511,0.0624499799839839
-2.38,4.64,7.82,-0.02,0.01,0.01,1721207098120,10000.0,9.399276567906703,0.0244948974278317,9.399276567906703,0.0244948974278317,3.36,0.0,27.238800000000005,0.0003,5.21908037876406,0.0173205080756887
0.49,-6.06,7.46,-0.43,0.19,0.1,1721207098130,10000.0,9.62368432566239,0.4806245936279166,9.62368432566239,0.4806245936279166,0.6300000000000002,-0.0466666666666666,45.7123,0.1122333333333333,6.761087190681688,0.3350124375800596
1.16,-4.96,17.6,-0.38,0.16,0.04,1721207098140,10000.0,18.322314264306243,0.4142463035441596,18.322314264306243,0.4142463035441596,4.6000000000000005,-0.06,136.11360000000002,0.0804,11.66677333284572,0.2835489375751565
2.41,2.62,14.31,-0.05,0.11,-0.14,1721207098150,10000.0,14.746138477581177,0.1849324200890693,14.746138477581177,0.1849324200890693,6.446666666666666,-0.0266666666666666,46.38503333333334,0.0160333333333333,6.810655866605899,0.1266227994214838
-0.35,2.9,1.71,0.1,-0.12,-0.26,1721207098160,10000.0,3.38475996194708,0.303315017762062,3.38475996194708,0.303315017762062,1.42,-0.0933333333333333,2.7037,0.0329333333333333,1.6442931612093994,0.1814754345175493
-0.93,-0.08,6.95,-0.09,0.31,-0.18,1721207098170,10000.0,7.012403297015938,0.3695943722515266,7.012403297015938,0.3695943722515266,1.98,0.0133333333333333,18.7063,0.0680333333333333,4.325078033978115,0.2608320021265284
-2.07,3.0,16.86,-0.01,-0.05,0.1,1721207098180,10000.0,17.24947825297913,0.1122497216032182,17.24947825297913,0.1122497216032182,5.93,0.0133333333333333,96.0249,0.0060333333333333,9.799229561552275,0.0776745346515403
-1.45,2.32,9.22,0.02,0.0,0.17,1721207098190,10000.0,9.617343708114005,0.1711724276862369,9.617343708114005,0.1711724276862369,3.3633333333333333,0.0633333333333333,29.27863333333334,0.0086333333333333,5.410973418280054,0.0929157324317757
1.11,-6.81,4.8,-0.19,0.16,-0.03,1721207098200,10000.0,8.40524836039959,0.2501999200639361,8.40524836039959,0.2501999200639361,-0.2999999999999998,-0.02,35.1891,0.0307,5.932040121239909,0.1752141546793523
0.43,0.68,14.62,-0.04,0.17,-0.08,1721207098210,10000.0,14.642120748033737,0.1920937271229854,14.642120748033737,0.1920937271229854,5.243333333333333,0.0166666666666666,65.95703333333333,0.0180333333333333,8.1213935585793,0.1342882471898912
0.51,6.84,12.21,0.23,0.02,-0.05,1721207098220,10000.0,14.004634947045211,0.2362202362203543,14.004634947045211,0.2362202362203543,6.5200000000000005,0.0666666666666666,34.2993,0.0212333333333333,5.856560424003154,0.1457166199626293
-0.91,-1.75,4.42,0.11,-0.07,-0.02,1721207098230,10000.0,4.840144625938361,0.1319090595827292,4.840144625938361,0.1319090595827292,0.5866666666666666,0.0066666666666666,11.197233333333331,0.0086333333333333,3.346226730712271,0.0929157324317756
1.04,-4.7,10.91,-0.06,0.37,-0.01,1721207098240,10000.0,11.924751569739303,0.3749666651850534,11.924751569739303,0.3749666651850534,2.4166666666666665,0.0999999999999999,62.33943333333335,0.0553,7.895532492070015,0.2351595203260969
-0.98,7.48,19.42,0.06,-0.12,0.11,1721207098250,10000.0,20.83379946145206,0.1734935157289747,20.83379946145206,0.1734935157289747,8.64,0.0166666666666666,105.04920000000004,0.0146333333333333,10.249351198978404,0.120968315410827
-0.61,7.6,12.06,0.19,0.06,-0.07,1721207098260,10000.0,14.267995654611058,0.2111871208194287,14.267995654611058,0.2111871208194287,6.3500000000000005,0.06,41.304100000000005,0.0169,6.426826588604986,0.13
-0.67,-8.24,2.74,0.05,-0.11,-0.14,1721207098270,10000.0,8.70942592826875,0.1849324200890693,8.70942592826875,0.1849324200890693,-2.056666666666666,-0.0666666666666666,31.58223333333333,0.0104333333333333,5.619807232755705,0.102143689640297
-0.47,-2.41,8.43,0.11,0.37,0.07,1721207098280,10000.0,8.780313206258647,0.3923009049186606,8.780313206258647,0.3923009049186606,1.85,0.1833333333333333,33.4132,0.0265333333333333,5.780415210000056,0.1628905563049415
0.69,8.4,11.69,0.3,-0.0,0.11,1721207098290,10000.0,14.411530106133768,0.3195309061734091,14.411530106133768,0.3195309061734091,6.926666666666667,0.1366666666666666,31.878033333333327,0.0230333333333333,5.6460635254426,0.1517673658377628
0.52,0.4,7.8,0.05,0.05,-0.15,1721207098300,10000.0,7.827541120939576,0.1658312395177699,7.827541120939576,0.1658312395177699,2.9066666666666667,-0.0166666666666666,17.96213333333333,0.0133333333333333,4.238175708171304,0.1154700538379251
-0.48,-7.73,14.42,-0.03,0.16,-0.27,1721207098310,10000.0,16.36825280840933,0.3152776554086889,16.36825280840933,0.3152776554086889,2.07,-0.0466666666666666,127.5325,0.0464333333333333,11.29302882312801,0.2154839514519198
-3.91,3.65,13.0,0.27,-0.16,0.04,1721207098320,10000.0,14.057403743223713,0.3163858403911275,14.057403743223713,0.3163858403911275,4.246666666666667,0.05,71.75403333333334,0.0463,8.470775249841855,0.2151743479135001
-1.78,5.25,5.44,0.17,0.14,0.12,1721207098330,10000.0,7.766884832415117,0.250798724079689,7.766884832415117,0.250798724079689,2.97,0.1433333333333333,16.9309,0.0006333333333333,4.114717487264466,0.0251661147842358
0.91,-2.96,9.4,0.05,0.06,0.09,1721207098340,10000.0,9.896954076886484,0.1191637528781298,9.896954076886484,0.1191637528781298,2.45,0.0666666666666666,39.9711,0.0004333333333333,6.322270161895963,0.0208166599946613
-0.48,-1.54,8.35,0.21,-0.15,-0.04,1721207098350,10000.0,8.504381223816345,0.2611512971440119,8.504381223816345,0.2611512971440119,2.11,0.0066666666666666,29.4841,0.0340333333333333,5.429926334675269,0.1844812546936228
0.92,-1.6,5.57,0.11,0.17,-0.11,1721207098360,10000.0,5.867819015613893,0.2304343724360582,5.867819015613893,0.2304343724360582,1.63,0.0566666666666666,13.230300000000003,0.0217333333333333,3.637347934965805,0.1474222959166398
-0.02,-2.83,15.29,-0.09,0.13,-0.13,1721207098370,10000.0,15.549707392745368,0.2046948949045872,15.549707392745368,0.2046948949045872,4.1466666666666665,-0.03,95.10443333333332,0.0196,9.752150190257188,0.1399999999999999
-1.58,4.27,18.17,0.21,-0.04,-0.1,1721207098380,10000.0,18.731743111627388,0.2360084744241189,18.731743111627388,0.2360084744241189,6.953333333333333,0.0233333333333333,102.91583333333335,0.0270333333333333,10.14474412360082,0.1644181660685136
-2.05,5.98,2.61,0.3,-0.15,-0.01,1721207098390,10000.0,6.839225102305085,0.3355592347112503,6.839225102305085,0.3355592347112503,2.18,0.0466666666666666,16.258900000000004,0.0530333333333333,4.032232632177862,0.2302896726588783
-1.13,-3.16,1.62,-0.06,-0.01,0.11,1721207098400,10000.0,3.72651311550087,0.1256980508997653,3.72651311550087,0.1256980508997653,-0.89,0.0133333333333333,5.7553,0.0076333333333333,2.399020633508599,0.087368949480541
0.61,-6.28,16.65,-0.23,0.09,0.1,1721207098410,10000.0,17.80542052297558,0.2664582518894846,17.80542052297558,0.2664582518894846,3.66,-0.0133333333333333,138.42309999999998,0.0352333333333333,11.765334674372845,0.1877054430040145
0.37,4.0,16.79,0.24,-0.08,-0.03,1721207098420,10000.0,17.263863993903566,0.2547547840571399,17.263863993903566,0.2547547840571399,7.053333333333334,0.0433333333333333,74.39623333333331,0.0296333333333333,8.625325114645436,0.1721433511156714
0.32,5.46,0.42,0.12,-0.06,-0.12,1721207098430,10000.0,5.485471720827663,0.18,5.485471720827663,0.18,2.066666666666667,-0.02,8.638533333333333,0.0155999999999999,2.939138195684805,0.1248999599679679
-2.5,-5.96,9.23,-0.35,0.11,-0.1,1721207098440,10000.0,11.26785250169703,0.3802630668366308,11.26785250169703,0.3802630668366308,0.2566666666666665,-0.1133333333333333,63.38343333333334,0.0530333333333333,7.961371322412575,0.2302896726588783
-1.98,-1.8,24.05,0.05,0.06,0.02,1721207098450,10000.0,24.198406972360804,0.0806225774829855,24.198406972360804,0.0806225774829855,6.756666666666667,0.0433333333333333,224.3026333333333,0.0004333333333333,14.976736404615435,0.0208166599946613
1.82,8.36,5.23,0.42,-0.19,0.24,1721207098460,10000.0,10.027706617168256,0.5197114584074513,10.027706617168256,0.5197114584074513,5.136666666666667,0.1566666666666666,10.699433333333332,0.0982333333333333,3.270998828084983,0.3134219732777734
2.77,-2.67,0.35,-0.29,0.02,0.15,1721207098470,10000.0,3.863198156967877,0.3271085446759225,3.863198156967877,0.3271085446759225,0.15,-0.0399999999999999,7.4284,0.0510999999999999,2.72550912675045,0.2260530911091463
2.65,-4.01,24.68,-0.23,0.1,-0.17,1721207098480,10000.0,25.14368708045819,0.3029851481508623,25.14368708045819,0.3029851481508623,7.773333333333333,-0.1,225.4654333333333,0.0309,15.015506429465953,0.1757839583124694
0.11,5.41,12.76,0.43,-0.29,-0.21,1721207098490,10000.0,13.859935064782952,0.5595533933415112,13.859935064782952,0.5595533933415112,6.093333333333334,-0.0233333333333333,40.35583333333333,0.1557333333333333,6.35262412970682,0.3946306289852997
-1.23,2.78,-5.38,0.01,-0.03,-0.17,1721207098500,10000.0,6.179457905026945,0.1729161646579058,6.179457905026945,0.1729161646579058,-1.2766666666666666,-0.0633333333333333,16.648033333333334,0.0089333333333333,4.08020015848896,0.0945163125250521
-2.06,-5.62,14.71,-0.3,0.28,-0.05,1721207098510,10000.0,15.88118698334605,0.4134005321718877,15.88118698334605,0.4134005321718877,2.3433333333333337,-0.0233333333333333,117.86923333333334,0.0846333333333333,10.856759799006946,0.2909180869821148
-0.66,2.08,19.4,0.19,-0.01,0.08,1721207098520,10000.0,19.52234617047859,0.2063976744055029,19.52234617047859,0.2063976744055029,6.94,0.0866666666666666,118.31559999999998,0.0100333333333333,10.877297458468256,0.1001665280087781
0.68,6.65,5.68,0.21,-0.08,0.07,1721207098530,10000.0,8.77196101222526,0.2353720459187964,8.77196101222526,0.2353720459187964,4.336666666666667,0.0666666666666666,10.263633333333331,0.0210333333333333,3.203690580148672,0.1450287327853806
0.9,0.29,5.92,-0.04,0.01,0.01,1721207098540,10000.0,5.99503961621606,0.0424264068711928,5.99503961621606,0.0424264068711928,2.37,-0.0066666666666666,9.5449,0.0008333333333333,3.089482157255484,0.0288675134594812
1.33,1.99,15.47,0.02,0.06,-0.03,1721207098550,10000.0,15.654069758372742,0.0699999999999999,15.654069758372742,0.0699999999999999,6.263333333333333,0.0166666666666666,63.68093333333333,0.0020333333333333,7.980033416805554,0.0450924975282289
0.4,1.01,6.46,0.08,-0.23,-0.04,1721207098560,10000.0,6.550702252430651,0.2467792535850613,6.550702252430651,0.2467792535850613,2.623333333333333,-0.0633333333333333,11.133033333333334,0.0244333333333333,3.3366200462943536,0.156311654502578
-0.63,-0.72,6.56,-0.08,0.12,-0.1,1721207098570,10000.0,6.629396654296679,0.1754992877478424,6.629396654296679,0.1754992877478424,1.7366666666666664,-0.02,17.45043333333333,0.0148,4.177371581908094,0.1216552506059644
-0.82,-4.41,11.01,-0.08,-0.02,-0.06,1721207098580,10000.0,11.88867528364704,0.1019803902718557,11.88867528364704,0.1019803902718557,1.9266666666666663,-0.0533333333333333,65.10223333333334,0.0009333333333333,8.068595499424504,0.0305505046330389
-2.54,1.85,12.21,0.11,-0.06,0.05,1721207098590,10000.0,12.607862626155155,0.1349073756323204,12.607862626155155,0.1349073756323204,3.84,0.0333333333333333,57.36070000000001,0.0074333333333333,7.573684704290245,0.086216781042517
0.25,7.47,12.96,0.06,0.13,0.07,1721207098600,10000.0,14.960782065119458,0.1593737745050922,14.960782065119458,0.1593737745050922,6.8933333333333335,0.0866666666666666,40.63543333333334,0.0014333333333333,6.374592797452504,0.0378593889720018
0.4,5.75,11.73,-0.05,-0.1,-0.08,1721207098610,10000.0,13.069636567250065,0.1374772708486752,13.069636567250065,0.1374772708486752,5.960000000000001,-0.0766666666666666,32.1253,0.0006333333333333,5.667918489181015,0.0251661147842358
0.08,-6.98,10.3,-0.38,-0.06,-0.17,1721207098620,10000.0,12.442539933630917,0.4205948168962618,12.442539933630917,0.4205948168962618,1.1333333333333335,-0.2033333333333333,75.48173333333335,0.0264333333333333,8.688022406355392,0.1625833119767626
-3.86,-3.11,13.54,-0.16,-0.17,-0.16,1721207098630,10000.0,14.41885224281045,0.2830194339616981,14.41885224281045,0.2830194339616981,2.19,-0.1633333333333333,96.7575,3.33333333333334e-05,9.83653902549062,0.0057735026918962
-3.69,-0.1,0.31,0.05,-0.15,0.13,1721207098640,10000.0,3.704348795672459,0.2046948949045872,3.704348795672459,0.2046948949045872,-1.16,0.01,4.842700000000001,0.0208,2.200613550808047,0.1442220510185595
2.54,-3.15,9.15,-0.12,0.3,0.26,1721207098650,10000.0,10.004828834118053,0.4147288270665544,10.004828834118053,0.4147288270665544,2.846666666666667,0.1466666666666666,37.893033333333335,0.0537333333333333,6.155731746375351,0.2318045153428494
3.36,2.3,15.91,0.19,-0.21,0.16,1721207098660,10000.0,16.422779910843353,0.3252691193458119,16.422779910843353,0.3252691193458119,7.19,0.0466666666666666,57.30969999999999,0.0496333333333333,7.570317034312367,0.2227853974867593
1.07,4.07,5.92,0.11,-0.13,-0.23,1721207098670,10000.0,7.263346336228226,0.2861817604250837,7.263346336228226,0.2861817604250837,3.686666666666667,-0.0833333333333333,5.990833333333334,0.0305333333333333,2.4476178895680047,0.174737898961082
-2.45,1.32,9.75,-0.11,-0.16,-0.31,1721207098680,10000.0,10.139398404244702,0.3657868231634376,10.139398404244702,0.3657868231634376,2.873333333333333,-0.1933333333333333,39.01963333333333,0.0108333333333333,6.246569725323918,0.1040832999733066
-4.03,-5.13,10.73,-0.1,-0.14,0.07,1721207098695,15000.0,12.557495769459768,0.1857417562100671,12.557495769459768,0.1857417562100671,0.5233333333333334,-0.0566666666666666,78.43453333333335,0.0124333333333333,8.856327305002528,0.1115048578911848
-2.73,-4.79,10.25,-0.02,-0.11,0.12,1721207098699,4000.0,11.638706972855704,0.1640121946685672,11.638706972855704,0.1640121946685672,0.91,-0.0033333333333333,66.4876,0.0134333333333333,8.15399288692356,0.1159022576714247
-0.38,2.81,4.38,0.21,-0.03,0.28,1721207098709,10000.0,5.21774855660945,0.3512833614050059,5.21774855660945,0.3512833614050059,2.27,0.1533333333333333,5.8831,0.0264333333333333,2.425510255595717,0.1625833119767626
3.73,-0.73,6.79,-0.04,0.08,0.16,1721207098719,10000.0,7.781381625392756,0.1833030277982336,7.781381625392756,0.1833030277982336,3.263333333333333,0.0666666666666666,14.300933333333331,0.0101333333333333,3.781657484930825,0.1006644591369433
3.26,-1.25,17.25,-0.18,-0.01,-0.11,1721207098729,10000.0,17.599789771471702,0.2111871208194287,17.599789771471702,0.2111871208194287,6.419999999999999,-0.0999999999999999,93.0517,0.0072999999999999,9.646330908692692,0.0854400374531753
0.7,1.24,13.25,0.02,-0.16,-0.3,1721207098739,10000.0,13.326293558225409,0.340587727318528,13.326293558225409,0.340587727318528,5.0633333333333335,-0.1466666666666666,50.33903333333334,0.0257333333333333,7.0950005872680055,0.1604161255402128
-1.65,0.76,9.44,-0.05,-0.13,-0.1,1721207098749,10000.0,9.613204460532398,0.1714642819948224,9.613204460532398,0.1714642819948224,2.85,-0.0933333333333333,34.0231,0.0016333333333333,5.832932367171764,0.0404145188432738
-1.16,1.8,9.84,0.06,-0.01,0.07,1721207098759,10000.0,10.070312805469351,0.092736184954957,10.070312805469351,0.092736184954957,3.4933333333333336,0.04,32.40053333333333,0.0019,5.69214663666822,0.0435889894354067
0.83,0.61,2.49,0.19,-0.1,0.06,1721207098769,10000.0,2.6946428334753385,0.2229349680960795,2.6946428334753385,0.2229349680960795,1.31,0.0499999999999999,1.0564000000000002,0.0211,1.0278132126023678,0.1452583904633395
2.17,1.16,8.0,-0.01,0.23,-0.15,1721207098779,10000.0,8.369856629596471,0.2747726332806817,8.369856629596471,0.2747726332806817,3.776666666666667,0.0233333333333333,13.632433333333331,0.0369333333333333,3.69221252548297,0.1921804707386609
1.01,-0.54,16.24,-0.23,-0.07,-0.3,1721207098789,10000.0,16.28033476314292,0.3844476557348217,16.28033476314292,0.3844476557348217,5.569999999999999,-0.2,85.98729999999998,0.0139,9.272933732104418,0.1178982612255159
-3.05,-4.93,17.81,-0.17,-0.28,-0.19,1721207098799,10000.0,18.72974906398908,0.3786819245752298,18.72974906398908,0.3786819245752298,3.276666666666666,-0.2133333333333333,159.2969333333333,0.0034333333333333,12.621288893505817,0.0585946527708231
-2.18,-0.28,12.49,0.04,0.07,0.08,1721207098809,10000.0,12.681912316366173,0.1135781669160054,12.681912316366173,0.1135781669160054,3.3433333333333337,0.0633333333333333,63.648633333333336,0.0004333333333333,7.978009359065289,0.0208166599946613
0.89,4.12,7.2,0.24,0.09,0.11,1721207098819,10000.0,8.343051000683143,0.278926513619627,8.343051000683143,0.278926513619627,4.07,0.1466666666666666,9.9559,0.0066333333333333,3.1552971333933035,0.0814452781524707
2.95,4.18,8.25,0.25,0.01,-0.03,1721207098829,10000.0,9.707594964768564,0.2519920633670831,9.707594964768564,0.2519920633670831,5.126666666666666,0.0766666666666666,7.694633333333332,0.0229333333333333,2.7739202103401124,0.1514375558880073
2.56,-0.18,5.6,0.27,-0.02,-0.24,1721207098839,10000.0,6.1600324674469045,0.3618010503025109,6.1600324674469045,0.3618010503025109,2.66,0.0033333333333333,8.3596,0.0654333333333333,2.891297286686376,0.2557994005726622
0.36,5.0,11.15,0.28,0.11,-0.38,1721207098849,10000.0,12.225060327049516,0.4846648326421053,12.225060327049516,0.4846648326421053,5.503333333333334,0.0033333333333333,29.29603333333333,0.1174333333333333,5.412581023258066,0.3426854728950927
-0.45,-0.79,7.01,0.07,-0.04,-0.18,1721207098859,10000.0,7.068712754101697,0.1972308292331601,7.068712754101697,0.1972308292331601,1.923333333333333,-0.0499999999999999,19.43453333333333,0.0157,4.408461560832002,0.1252996408614166
-3.37,-7.0,11.54,-0.16,-0.09,-0.13,1721207098869,10000.0,13.911452116871192,0.2249444375840398,13.911452116871192,0.2249444375840398,0.3899999999999994,-0.1266666666666666,96.5361,0.0012333333333333,9.825278622003552,0.0351188458428424
-0.73,0.36,14.91,0.22,0.05,-0.08,1721207098879,10000.0,14.9322001058116,0.2393741840717164,14.9322001058116,0.2393741840717164,4.846666666666667,0.0633333333333333,76.25003333333332,0.0226333333333333,8.732126506947395,0.1504437879519568
1.5,4.97,4.1,0.35,0.05,0.01,1721207098889,10000.0,6.615202188897932,0.3536947836765479,6.615202188897932,0.3536947836765479,3.523333333333333,0.1366666666666666,3.259633333333333,0.0345333333333333,1.805445466729287,0.1858314648635513
2.27,0.74,7.53,0.01,0.22,-0.12,1721207098899,10000.0,7.899455677450187,0.250798724079689,7.899455677450187,0.250798724079689,3.513333333333333,0.0366666666666666,12.685433333333338,0.0294333333333333,3.561661597251111,0.1715614564327702
0.35,-1.97,19.07,0.1,-0.07,-0.29,1721207098909,10000.0,19.17467861529888,0.3146426544510454,19.17467861529888,0.3146426544510454,5.816666666666666,-0.0866666666666666,133.08373333333333,0.0382333333333333,11.536192323870702,0.1955334583474995
-2.52,6.27,9.45,0.31,-0.04,-0.2,1721207098919,10000.0,11.617478211729082,0.3710795063055894,11.617478211729082,0.3710795063055894,4.4,0.0233333333333333,38.4429,0.0680333333333333,6.200233866556971,0.2608320021265284
0.17,-0.05,3.37,-0.03,0.14,0.1,1721207098929,10000.0,3.3746555379771728,0.1746424919657298,3.3746555379771728,0.1746424919657298,1.163333333333333,0.07,3.664133333333334,0.0079,1.9141926061223131,0.0888819441731559
1.76,-1.58,10.82,-0.01,0.06,-0.01,1721207098939,10000.0,11.075486445298916,0.0616441400296897,11.075486445298916,0.0616441400296897,3.6666666666666665,0.0133333333333333,41.16653333333333,0.0016333333333333,6.416115127811636,0.0404145188432738
3.42,-1.53,8.66,0.09,0.18,-0.3,1721207098949,10000.0,9.435724667454004,0.3612478373637688,9.435724667454004,0.3612478373637688,3.516666666666667,-0.0099999999999999,25.96603333333333,0.0650999999999999,5.095687719369519,0.2551470164434614
0.03,1.13,9.81,0.02,-0.02,-0.44,1721207098959,10000.0,9.874912657841588,0.440908153700972,9.874912657841588,0.440908153700972,3.6566666666666663,-0.1466666666666666,28.70013333333334,0.0649333333333333,5.357250538600312,0.2548201980482186
-2.56,1.31,13.93,-0.01,0.16,-0.34,1721207098969,10000.0,14.223733687045746,0.37589892258425,14.223733687045746,0.37589892258425,4.226666666666667,-0.0633333333333333,74.36023333333334,0.0646333333333333,8.623237984268632,0.2542308662089113
-2.73,-2.87,15.88,0.0,0.22,-0.18,1721207098979,10000.0,16.36655736555492,0.2842534080710379,16.36655736555492,0.2842534080710379,3.426666666666667,0.0133333333333333,116.31903333333334,0.0401333333333333,10.785130195474384,0.2003330560175562
-2.95,3.83,12.28,0.29,0.01,-0.03,1721207098989,10000.0,13.197340641204956,0.2917190429162964,13.197340641204956,0.2917190429162964,4.386666666666667,0.09,58.22063333333333,0.0303999999999999,7.630244644395967,0.1743559577416269
-0.16,2.21,-0.56,0.03,0.1,0.09,1721207098999,10000.0,2.285454003037471,0.1378404875209022,2.285454003037471,0.1378404875209022,0.4966666666666666,0.0733333333333333,2.2416333333333336,0.0014333333333333,1.4972085136457558,0.0378593889720018
0.68,-1.74,10.08,-0.21,0.17,-0.12,1721207099009,10000.0,10.251653525163636,0.2956349099818896,10.251653525163636,0.2956349099818896,3.0066666666666664,-0.0533333333333333,38.98813333333334,0.0394333333333333,6.244047832402739,0.198578280114753
0.31,3.49,13.91,0.2,0.08,-0.4,1721207099019,10000.0,14.344486745784948,0.4543126676640219,14.344486745784948,0.4543126676640219,5.903333333333333,-0.04,50.60813333333334,0.1008,7.113939368123216,0.3174901573277509
-0.28,3.0,0.3,-0.01,0.02,-0.14,1721207099029,10000.0,3.027936591145858,0.1417744687875782,3.027936591145858,0.1417744687875782,1.0066666666666666,-0.0433333333333333,3.064133333333333,0.0072333333333333,1.7504666044610313,0.0850490054811538
-1.3,-3.42,16.18,-0.44,0.3,-0.16,1721207099039,10000.0,16.588514098616546,0.5560575509783138,16.588514098616546,0.5560575509783138,3.82,-0.1,115.7008,0.1396,10.756430634741248,0.3736308338453881
-1.04,-0.67,22.28,-0.0,0.08,-0.2,1721207099049,10000.0,22.314320513965917,0.2154065922853802,22.314320513965917,0.2154065922853802,6.8566666666666665,-0.04,178.44363333333337,0.0208,13.358279579846103,0.1442220510185595
-0.83,5.57,3.11,0.13,-0.06,-0.07,1721207099059,10000.0,6.433187390399879,0.1593737745050922,6.433187390399879,0.1593737745050922,2.6166666666666667,0.0,10.422533333333334,0.0127,3.228394853999946,0.1126942766958464
0.98,-0.56,0.61,-0.27,0.14,-0.01,1721207099069,10000.0,1.2830042868205858,0.3043024810940588,1.2830042868205858,0.3043024810940588,0.3433333333333332,-0.0466666666666666,0.6462333333333334,0.0430333333333333,0.8038863933002806,0.2074447717666881
1.76,-4.3,11.92,-0.25,0.13,-0.19,1721207099079,10000.0,12.79351398170182,0.3398529093593285,12.79351398170182,0.3398529093593285,3.1266666666666665,-0.1033333333333333,67.17293333333332,0.0417333333333333,8.195909548874567,0.2042873792805941
-0.48,1.9,12.72,-0.01,0.07,-0.36,1721207099089,10000.0,12.870073814862137,0.3668787265568828,12.870073814862137,0.3668787265568828,4.713333333333334,-0.0999999999999999,49.49613333333334,0.0523,7.035348842334212,0.2286919325205854
-1.91,1.48,6.52,-0.12,0.05,-0.23,1721207099099,10000.0,6.953337328218731,0.2641968962724581,6.953337328218731,0.2641968962724581,2.03,-0.0999999999999999,17.9931,0.0199,4.24182743637692,0.1410673597966588
-1.53,-0.31,14.69,-0.33,0.28,-0.09,1721207099109,10000.0,14.772714713281374,0.4420407221060069,14.772714713281374,0.4420407221060069,4.283333333333333,-0.0466666666666666,81.59613333333333,0.0944333333333333,9.033057806376162,0.3073000705065544
1.37,1.67,21.23,-0.17,0.21,-0.02,1721207099119,10000.0,21.339604026316888,0.2709243436828813,21.339604026316888,0.2709243436828813,8.09,0.0066666666666666,129.5172,0.0366333333333333,11.380562376262432,0.1913983629327412
2.39,2.94,7.76,0.04,-0.11,-0.0,1721207099129,10000.0,8.635583361881233,0.1170469991071962,8.635583361881233,0.1170469991071962,4.363333333333333,-0.0233333333333333,8.728633333333333,0.0060333333333333,2.9544260581935933,0.0776745346515403
2.61,-1.69,1.8,-0.33,0.2,-0.22,1721207099139,10000.0,3.5927983522596976,0.4441846462902562,3.5927983522596976,0.4441846462902562,0.9066666666666666,-0.1166666666666666,5.221033333333334,0.0782333333333333,2.284958059425453,0.2797022226106423
-0.38,-3.53,17.21,-0.36,0.08,-0.45,1721207099149,10000.0,17.572404502514733,0.5818075283115542,17.572404502514733,0.5818075283115542,4.433333333333334,-0.2433333333333333,124.91303333333332,0.0804333333333333,11.176449943221389,0.2836077102854105
-3.27,2.82,13.54,0.03,0.1,-0.39,1721207099159,10000.0,14.211857725153315,0.403732584763727,14.211857725153315,0.403732584763727,4.363333333333333,-0.0866666666666666,72.43043333333333,0.0702333333333333,8.510607107212348,0.2650157228040128
-4.14,-0.06,0.11,-0.08,0.06,-0.09,1721207099169,10000.0,4.141895701245988,0.1345362404707371,4.141895701245988,0.1345362404707371,-1.363333333333333,-0.0366666666666666,5.789633333333332,0.0070333333333333,2.406165691163709,0.0838649708360608
-0.93,-0.89,12.23,-0.23,0.45,0.12,1721207099179,10000.0,12.29755666789139,0.5194227565288221,12.29755666789139,0.5194227565288221,3.47,0.1133333333333333,57.5536,0.1156333333333333,7.586408900131867,0.3400490160746438
3.66,0.36,17.87,-0.04,0.24,0.17,1721207099189,10000.0,18.244508762912748,0.2968164415931166,18.244508762912748,0.2968164415931166,7.296666666666667,0.1233333333333333,86.56903333333335,0.0212333333333333,9.304248133693198,0.1457166199626293
2.55,4.57,5.88,0.06,-0.05,-0.1,1721207099199,10000.0,7.871581797834537,0.1268857754044952,7.871581797834537,0.1268857754044952,4.333333333333333,-0.03,2.8142333333333336,0.0066999999999999,1.6775676836817446,0.0818535277187244
2.85,-1.2,11.13,-0.3,0.34,-0.4,1721207099209,10000.0,11.551597292149689,0.604648658313239,11.551597292149689,0.604648658313239,4.260000000000001,-0.12,39.49830000000001,0.1612,6.284767298794762,0.4014971979976946
-1.76,-1.19,19.51,-0.15,-0.17,-0.34,1721207099219,10000.0,19.625335665919195,0.408656334834051,19.625335665919195,0.408656334834051,5.5200000000000005,-0.22,146.87130000000002,0.0109,12.119046992234992,0.1044030650891055
-5.0,1.69,7.29,0.07,0.0,-0.03,1721207099229,10000.0,9.000011111104254,0.076157731058639,9.000011111104254,0.076157731058639,1.3266666666666669,0.0133333333333333,37.86003333333333,0.0026333333333333,6.1530507338501055,0.0513160143944688
-1.59,-0.04,1.93,-0.03,0.26,0.17,1721207099239,10000.0,2.500919830782266,0.3120897306865447,2.500919830782266,0.3120897306865447,0.0999999999999999,0.1333333333333333,3.1123000000000003,0.0220333333333333,1.7641711935070248,0.1484362938547488
2.19,-1.89,13.19,-0.11,0.29,-0.01,1721207099249,10000.0,13.503492140924138,0.310322412983658,13.503492140924138,0.310322412983658,4.496666666666667,0.0566666666666666,60.84213333333332,0.0433333333333333,7.800136750937981,0.2081665999466132
2.84,0.0,18.62,0.03,0.12,-0.05,1721207099259,10000.0,18.835339126227595,0.1334166406412633,18.835339126227595,0.1334166406412633,7.153333333333333,0.0333333333333333,100.62973333333336,0.0072333333333333,10.031437251627176,0.0850490054811538
-0.57,8.68,6.92,0.33,-0.01,-0.34,1721207099269,10000.0,11.11547120008864,0.4739198244429115,11.11547120008864,0.4739198244429115,5.01,-0.0066666666666666,24.1267,0.1122333333333333,4.911893728492098,0.3350124375800596
-1.38,-2.71,3.12,-0.14,0.16,-0.28,1721207099279,10000.0,4.356936997478848,0.3515679166249389,4.356936997478848,0.3515679166249389,-0.3233333333333332,-0.0866666666666666,9.334633333333333,0.0505333333333333,3.055263218338697,0.2247962040011648
-5.99,-3.89,15.52,-0.2,-0.06,0.07,1721207099289,10000.0,17.084571987615025,0.2202271554554524,17.084571987615025,0.2202271554554524,1.88,-0.0633333333333333,140.6397,0.0182333333333333,11.859161015856056,0.135030860670194
-2.03,3.35,12.34,0.26,0.21,0.16,1721207099299,10000.0,12.946775660371967,0.3705401462729781,12.946775660371967,0.3705401462729781,4.553333333333334,0.21,52.710233333333335,0.0025,7.260181356779825,0.05
1.53,-3.89,5.03,-0.11,0.05,0.03,1721207099309,10000.0,6.540175838614739,0.1244989959798873,6.540175838614739,0.1244989959798873,0.89,-0.01,20.19880000000001,0.0076,4.4943075106182935,0.0871779788708134
-1.41,3.12,16.25,-0.04,0.22,-0.05,1721207099319,10000.0,16.606775725588637,0.229128784747792,16.606775725588637,0.229128784747792,5.986666666666667,0.0433333333333333,84.13223333333332,0.0234333333333333,9.172362472849256,0.1530795000427338
1.85,4.55,13.52,0.2,0.26,-0.11,1721207099329,10000.0,14.384554216241808,0.3459768778401239,14.384554216241808,0.3459768778401239,6.640000000000001,0.1166666666666666,37.3233,0.0394333333333333,6.109279826624412,0.198578280114753
-0.42,-5.08,4.04,-0.01,-0.11,-0.08,1721207099339,10000.0,6.504183269250644,0.1363818169698585,6.504183269250644,0.1363818169698585,-0.4866666666666666,-0.0666666666666666,20.79693333333333,0.0026333333333333,4.560365482429378,0.0513160143944688
-1.15,-5.81,10.47,-0.06,0.3,-0.05,1721207099349,10000.0,12.029110524057876,0.31,12.029110524057876,0.31,1.1700000000000006,0.0633333333333333,70.2964,0.0420333333333333,8.384294842143852,0.205020324195757
-1.44,3.7,17.75,0.13,-0.15,0.12,1721207099359,10000.0,18.188625566545703,0.231948270094864,18.188625566545703,0.231948270094864,6.670000000000001,0.0333333333333333,98.6797,0.0252333333333333,9.933765650547633,0.1588500340992514
-1.7,9.5,7.08,0.32,-0.04,0.07,1721207099369,10000.0,11.96939430380669,0.33,11.96939430380669,0.33,4.96,0.1166666666666666,34.7308,0.0340333333333333,5.893284313521621,0.1844812546936228
0.1,-2.5,3.99,0.03,0.1,-0.01,1721207099379,10000.0,4.709575352407051,0.1048808848170151,4.709575352407051,0.1048808848170151,0.5300000000000001,0.04,10.6687,0.0031,3.266297598198915,0.0556776436283002
-0.54,-7.0,13.07,-0.21,0.15,0.02,1721207099389,10000.0,14.83632366861818,0.2588435821108957,14.83632366861818,0.2588435821108957,1.8433333333333333,-0.0133333333333333,104.96143333333332,0.0332333333333333,10.245068732484588,0.1823001188516708
0.15,2.06,18.54,0.1,0.11,-0.06,1721207099399,10000.0,18.654696459605017,0.1603121954188139,18.654696459605017,0.1603121954188139,6.916666666666667,0.05,102.23843333333332,0.0091,10.111302257045494,0.0953939201416945
0.15,2.54,3.93,0.17,-0.14,-0.1,1721207099409,10000.0,4.681773168362603,0.2418677324489565,4.681773168362603,0.2418677324489565,2.2066666666666666,-0.0233333333333333,3.6554333333333338,0.0284333333333333,1.911918756990823,0.1686218649325565
-0.85,-2.46,7.34,0.04,0.23,-0.04,1721207099419,10000.0,7.787791728083128,0.2368543856465402,7.787791728083128,0.2368543856465402,1.343333333333333,0.0766666666666666,27.618033333333333,0.0192333333333333,5.255286227536359,0.1386842937514314
-1.8,0.53,12.11,0.26,-0.16,0.16,1721207099429,10000.0,12.254509374103886,0.3446737587922817,12.254509374103886,0.3446737587922817,3.613333333333333,0.0866666666666666,55.50223333333332,0.0481333333333333,7.449982102886779,0.2193931022920578
-0.19,4.24,8.98,0.17,0.11,0.06,1721207099439,10000.0,9.932477032442613,0.2111871208194287,9.932477032442613,0.2111871208194287,4.343333333333334,0.1133333333333333,21.03023333333334,0.0030333333333333,4.585873235637171,0.055075705472861
1.17,-0.52,10.49,-0.0,0.01,-0.05,1721207099449,10000.0,10.567847462941543,0.0509901951359278,10.567847462941543,0.0509901951359278,3.713333333333333,-0.0133333333333333,35.15643333333334,0.0010333333333333,5.929286072819673,0.0321455025366431
-2.2,0.41,9.82,0.14,-0.15,-0.08,1721207099459,10000.0,10.071767471501712,0.2202271554554524,10.071767471501712,0.2202271554554524,2.6766666666666663,-0.0299999999999999,39.97343333333334,0.0229,6.32245469207438,0.1513274595042155
0.11,-1.45,7.64,0.13,0.19,-0.02,1721207099469,10000.0,7.777158864263993,0.2310844001658268,7.777158864263993,0.2310844001658268,2.1,0.0999999999999999,23.627099999999995,0.0117,4.860771543695506,0.1081665382639196
-0.38,3.08,9.18,0.3,-0.09,0.09,1721207099479,10000.0,9.690366350143837,0.3258834147360064,9.690366350143837,0.3258834147360064,3.96,0.0999999999999999,23.4292,0.0381,4.840371886539298,0.1951922129594313
1.83,2.19,7.78,0.13,0.16,0.07,1721207099489,10000.0,8.286941534727996,0.2177154105707724,8.286941534727996,0.2177154105707724,3.9333333333333336,0.12,11.130033333333332,0.0021,3.336170459274126,0.0458257569495584
1.99,0.4,16.97,-0.05,0.09,-0.09,1721207099499,10000.0,17.090962524094422,0.1367479433117734,17.090962524094422,0.1367479433117734,6.453333333333333,-0.0166666666666666,83.58223333333332,0.0089333333333333,9.142331941760446,0.0945163125250521
-0.31,2.27,16.3,0.11,-0.13,-0.18,1721207099509,10000.0,16.460224785828412,0.2477902338672773,16.460224785828412,0.2477902338672773,6.086666666666667,-0.0666666666666666,79.89823333333335,0.0240333333333333,8.938581170036628,0.1550268793897798
-1.34,3.46,11.95,0.05,0.11,-0.17,1721207099519,10000.0,12.512781465365723,0.2085665361461421,12.512781465365723,0.2085665361461421,4.69,-0.0033333333333333,45.2907,0.0217333333333333,6.729836550764067,0.1474222959166398
-3.49,4.24,7.64,0.23,-0.18,0.04,1721207099529,10000.0,9.408894727862569,0.2947880594596735,9.408894727862569,0.2947880594596735,2.796666666666667,0.03,32.53163333333333,0.0421,5.703650877581247,0.2051828452868319
-1.78,-1.22,-1.95,0.1,-0.04,0.3,1721207099539,10000.0,2.908487579481817,0.3187475490101845,2.908487579481817,0.3187475490101845,-1.65,0.12,0.1459,0.0292,0.3819685850956856,0.1708800749063506
0.66,-2.2,8.03,-0.12,0.21,0.21,1721207099549,10000.0,8.352035680000414,0.3203123475609393,8.352035680000414,0.3203123475609393,2.163333333333333,0.0999999999999999,27.85823333333333,0.0363,5.2780899322892685,0.1905255888325765
3.12,-0.49,19.74,-0.0,0.01,-0.01,1721207099559,10000.0,19.991050497660197,0.0141421356237309,19.991050497660197,0.0141421356237309,7.456666666666666,0.0,116.4182333333333,0.0001,10.789728139917766,0.01
0.88,0.27,10.91,0.14,-0.22,-0.13,1721207099569,10000.0,10.948762487148947,0.2913760456866693,10.948762487148947,0.2913760456866693,4.0200000000000005,-0.0699999999999999,35.697100000000006,0.0351,5.974705013638749,0.1873499399519519
-1.51,5.26,8.47,0.05,0.06,-0.09,1721207099579,10000.0,10.084076556631253,0.1191637528781298,10.084076556631253,0.1191637528781298,4.073333333333333,0.0066666666666666,25.956233333333337,0.0070333333333333,5.094726031233999,0.0838649708360608
-0.97,0.72,10.17,0.02,0.1,0.08,1721207099589,10000.0,10.241494031634252,0.1296148139681572,10.241494031634252,0.1296148139681572,3.306666666666666,0.0666666666666666,36.04303333333333,0.0017333333333333,6.00358504006842,0.0416333199893226
-0.34,2.99,9.53,0.06,-0.09,0.21,1721207099599,10000.0,9.993828095379667,0.2362202362203543,9.993828095379667,0.2362202362203543,4.06,0.06,25.2129,0.0225,5.021244865568697,0.15
0.61,5.59,5.46,0.09,0.0,0.06,1721207099609,10000.0,7.837844091330217,0.1081665382639196,7.837844091330217,0.1081665382639196,3.8866666666666663,0.0499999999999999,8.056633333333334,0.0021,2.838420922508382,0.0458257569495584
1.37,-6.15,4.04,-0.31,-0.05,-0.09,1721207099619,10000.0,7.484717763549939,0.3266496594212215,7.484717763549939,0.3266496594212215,-0.2466666666666667,-0.15,27.919233333333334,0.0196,5.2838653780479055,0.1399999999999999
-1.76,-3.95,13.6,-0.19,-0.01,-0.18,1721207099629,10000.0,14.270953016529765,0.2619160170741759,14.270953016529765,0.2619160170741759,2.63,-0.1266666666666666,91.4547,0.0102333333333333,9.563195072777717,0.1011599393699567
-1.36,-0.61,7.85,-0.04,-0.05,-0.07,1721207099639,10000.0,7.990256566594091,0.0948683298050513,7.990256566594091,0.0948683298050513,1.96,-0.0533333333333333,26.1597,0.0002333333333333,5.114655413612924,0.0152752523165194
-1.84,2.49,10.68,-0.21,0.09,0.13,1721207099649,10000.0,11.119716723010528,0.2628687885618983,11.119716723010528,0.2628687885618983,3.776666666666667,0.0033333333333333,40.42923333333333,0.0345333333333333,6.358398645361372,0.1858314648635513
0.38,0.76,7.41,0.09,-0.01,0.23,1721207099659,10000.0,7.458558842028398,0.2471841418861655,7.458558842028398,0.2471841418861655,2.85,0.1033333333333333,15.631300000000005,0.0145333333333333,3.9536438888701135,0.1205542754668341
2.42,-4.45,4.75,-0.47,0.11,0.01,1721207099669,10000.0,6.944163016519702,0.4828043081829324,6.944163016519702,0.4828043081829324,0.9066666666666666,-0.1166666666666666,22.87763333333333,0.0961333333333333,4.783056902581584,0.3100537587795596
0.63,2.43,20.23,-0.28,-0.22,-0.15,1721207099679,10000.0,20.38515881713949,0.3863935817272331,20.38515881713949,0.3863935817272331,7.763333333333333,-0.2166666666666666,117.37333333333332,0.0042333333333333,10.833897421211509,0.0650640709864771
-2.29,-4.8,6.69,-0.25,-0.13,-0.16,1721207099689,10000.0,8.54635594859002,0.324037034920393,8.54635594859002,0.324037034920393,-0.1333333333333331,-0.18,36.493433333333336,0.0039,6.040979501151559,0.0624499799839839
-3.81,-4.43,15.33,-0.39,0.19,-0.03,1721207099699,10000.0,16.4057886125599,0.434856298103178,16.4057886125599,0.434856298103178,2.3633333333333333,-0.0766666666666666,126.19693333333332,0.0857333333333333,11.23374084325134,0.29280255007997
-1.06,-0.26,12.88,-0.1,-0.18,0.24,1721207099709,10000.0,12.926159522456777,0.3162277660168379,12.926159522456777,0.3162277660168379,3.8533333333333335,-0.0133333333333333,61.27053333333334,0.0497333333333333,7.827549637870931,0.2230097157823697
1.74,0.62,7.75,-0.27,0.08,0.17,1721207099719,10000.0,7.967088552288094,0.3289376840679706,7.967088552288094,0.3289376840679706,3.37,-0.0066666666666666,14.701900000000002,0.0540333333333333,3.8343056737824126,0.2324507116214819
3.49,0.12,12.08,-0.18,0.03,-0.05,1721207099729,10000.0,12.574613314134156,0.189208879284245,12.574613314134156,0.189208879284245,5.23,-0.0666666666666666,38.0311,0.0112333333333333,6.166936030153061,0.1059874206372309
-0.11,-0.34,10.81,-0.16,-0.08,-0.25,1721207099739,10000.0,10.815904955203704,0.3074085229787879,10.815904955203704,0.3074085229787879,3.4533333333333336,-0.1633333333333333,40.603633333333335,0.0072333333333333,6.372098032307203,0.0850490054811538
-2.24,6.84,12.74,-0.01,-0.0,-0.19,1721207099749,10000.0,14.632525414295374,0.1902629759044045,14.632525414295374,0.1902629759044045,5.78,-0.0666666666666666,56.94279999999999,0.0114333333333333,7.54604532188881,0.1069267662156362
-0.86,1.73,5.99,0.08,-0.16,0.07,1721207099759,10000.0,6.293854145116489,0.1920937271229854,6.293854145116489,0.1920937271229854,2.286666666666666,-0.0033333333333333,11.963033333333335,0.0184333333333333,3.4587618208447566,0.1357694123627753
-0.51,-4.39,10.43,-0.29,0.11,0.15,1721207099769,10000.0,11.32771380288185,0.3445286635390443,11.32771380288185,0.3445286635390443,1.8433333333333333,-0.01,59.06173333333332,0.0591999999999999,7.6851631949707695,0.2433105012119287
-1.95,7.09,17.19,-0.04,-0.15,0.03,1721207099779,10000.0,18.696702917894378,0.1581138830084189,18.696702917894378,0.1581138830084189,7.443333333333334,-0.0533333333333333,91.67853333333332,0.0082333333333333,9.574890773963604,0.0907377172587746
-0.1,-3.39,6.41,-0.13,-0.11,-0.05,1721207099789,10000.0,7.2519100932099265,0.1774823934929884,7.2519100932099265,0.1774823934929884,0.9733333333333332,-0.0966666666666666,24.874033333333333,0.0017333333333333,4.98738742563011,0.0416333199893226
0.72,-6.15,16.72,-0.19,0.1,-0.03,1721207099799,10000.0,17.829730788769638,0.216794833886788,17.829730788769638,0.216794833886788,3.763333333333333,-0.04,137.7056333333333,0.0211,11.73480435854528,0.1452583904633395
0.09,3.0,12.36,0.26,-0.23,0.17,1721207099809,10000.0,12.719186294728134,0.3865229618017538,12.719186294728134,0.3865229618017538,5.15,0.0666666666666666,41.10509999999999,0.0680333333333333,6.411325915908502,0.2608320021265284
0.65,6.25,6.32,0.2,0.06,0.09,1721207099819,10000.0,8.912205114336182,0.2273763400180414,8.912205114336182,0.2273763400180414,4.406666666666667,0.1166666666666666,10.585633333333334,0.0054333333333333,3.2535570278286707,0.0737111479583199
2.14,2.55,12.34,0.27,-0.02,0.03,1721207099829,10000.0,12.781146270972725,0.2723967694375247,12.781146270972725,0.2723967694375247,5.676666666666667,0.0933333333333333,33.34203333333333,0.0240333333333333,5.774256084841868,0.1550268793897798
1.07,-0.93,9.86,0.2,-0.04,-0.08,1721207099839,10000.0,9.961395484569415,0.2190890230020664,9.961395484569415,0.2190890230020664,3.333333333333333,0.0266666666666666,32.94803333333333,0.0229333333333333,5.740037746681926,0.1514375558880073
-0.97,0.44,9.93,0.18,-0.09,-0.13,1721207099849,10000.0,9.986961499875726,0.2395829710142187,9.986961499875726,0.2395829710142187,3.1333333333333333,-0.0133333333333333,35.143033333333335,0.0284333333333333,5.928155980853855,0.1686218649325565
-0.24,0.9,9.97,0.27,0.01,-0.01,1721207099859,10000.0,10.013416000546467,0.2703701166919155,10.013416000546467,0.2703701166919155,3.543333333333333,0.09,31.30143333333334,0.0244,5.594768389605895,0.1562049935181331
1.38,-1.04,9.06,0.23,0.05,0.04,1721207099869,10000.0,9.223318274894346,0.2387467277262664,9.223318274894346,0.2387467277262664,3.1333333333333333,0.1066666666666666,27.808133333333345,0.0114333333333333,5.273341761476621,0.1069267662156362
0.38,5.59,13.94,0.27,-0.01,-0.01,1721207099879,10000.0,15.02385103760018,0.2703701166919155,15.02385103760018,0.2703701166919155,6.636666666666667,0.0833333333333333,46.79003333333333,0.0261333333333333,6.840324066397244,0.1616580753730952
0.88,7.38,6.55,0.31,-0.07,-0.03,1721207099889,10000.0,9.906629093692768,0.3192177939902473,9.906629093692768,0.3192177939902473,4.9366666666666665,0.0699999999999999,12.514633333333332,0.0436,3.537602766469595,0.208806130178211
1.29,-7.54,4.93,-0.1,0.03,-0.16,1721207099899,10000.0,9.100582398945685,0.191049731745428,9.100582398945685,0.191049731745428,-0.4400000000000001,-0.0766666666666666,41.1199,0.0094333333333333,6.412480019462049,0.0971253485622231
-0.95,-1.62,14.13,0.05,0.06,-0.28,1721207099909,10000.0,14.254255504936063,0.2906888370749727,14.254255504936063,0.2906888370749727,3.8533333333333335,-0.0566666666666666,79.31963333333334,0.0374333333333333,8.906157046298551,0.1934769581457527
-1.63,5.06,4.82,0.28,-0.08,-0.04,1721207099919,10000.0,7.175855349712673,0.2939387691339814,7.175855349712673,0.2939387691339814,2.75,0.0533333333333333,14.4027,0.0389333333333333,3.7950889317643135,0.1973153144926499
-0.11,-2.0,1.09,-0.04,0.07,0.15,1721207099929,10000.0,2.280394702677587,0.170293863659264,2.280394702677587,0.170293863659264,-0.3399999999999999,0.06,2.4267000000000003,0.0091,1.557786891715295,0.0953939201416945
